timestamp	imu.gyro.x	imu.gyro.y	imu.gyro.z	imu.acc.x	imu.acc.y	imu.acc.z	imu.status	imu.temperature
256551281491968	-0.04710827768	0.015598136	0.02259692922	0.1787716895	-0.1075842828	-9.55327034	0	51.61518097
256551281997598	-0.07069627941	0.01571797766	0.02317749709	0.1628373861	-0.09714202583	-9.686152458	0	52.10612869
256551282503295	-0.07066164166	0.01549160667	0.02288455144	0.1586939842	-0.1023152545	-9.670080185	0	52.08920288
256551283008981	-0.07046990842	0.01553155389	0.02306830883	0.1542632133	-0.1020038873	-9.674682617	0	52.05627823
256551283514689	-0.06986802071	0.01573661715	0.02303635329	0.1614961624	-0.1004950106	-9.680835724	0	52.02710342
256551284020378	-0.07072292268	0.01572063565	0.02287656069	0.1602986753	-0.1014769897	-9.680476189	0	51.96499634
256551284526068	-0.07036336511	0.01548894402	0.02279666997	0.1602746993	-0.09592053294	-9.676932335	0	51.93391418
256551285031765	-0.07024888694	0.01540372428	0.02280998603	0.1594843566	-0.1063627824	-9.681605339	0	51.87836456
256551285537441	-0.07076018304	0.01572597027	0.02299640328	0.156107381	-0.1030816436	-9.678821564	0	51.82564926
256551286043139	-0.07045926154	0.01552622486	0.02300972119	0.1639151275	-0.09867481142	-9.683734894	0	51.76731491
256551286548826	-0.0705711022	0.01589374617	0.02285792492	0.1646336466	-0.09963280708	-9.67135334	0	51.729702
256551287054514	-0.07039535791	0.01526257489	0.02261291258	0.1614003927	-0.1016685963	-9.676382065	0	51.67887115
256551287560206	-0.07057110965	0.01598696038	0.02307629958	0.1585502774	-0.09884242713	-9.679423332	0	51.63464355
256551288065884	-0.07055244595	0.01554753259	0.02283395454	0.1602986455	-0.09419613332	-9.671998024	0	51.59793854
256551288571578	-0.07057911158	0.01505218912	0.0227007959	0.1596280783	-0.107440576	-9.682944298	0	51.53484726
256551289077257	-0.07053650916	0.01541703939	0.0229058601	0.1544787139	-0.09829160571	-9.677459717	0	51.45012283
256551289582948	-0.07041131705	0.01521730237	0.02268747985	0.1548380554	-0.09671089798	-9.676116943	0	51.39744186
256551290088623	-0.07050719857	0.01545965392	0.02271411195	0.1585981846	-0.1021475568	-9.667686462	0	51.37673187
256551290594318	-0.07022757083	0.01458347403	0.02278868109	0.159915477	-0.09738148749	-9.666202545	0	51.35133362
256551291100025	-0.07068025321	0.01468733419	0.02288189158	0.1584065855	-0.1016446277	-9.68428421	0	51.29676437
256551291605675	-0.0704459399	0.01494033448	0.0227167774	0.1597717553	-0.09795628488	-9.682869911	0	51.20734787
256551292111364	-0.0705338344	0.01509479247	0.02267416753	0.1558678746	-0.09920171648	-9.66764164	0	51.13860703
256551292617032	-0.07020359486	0.01504419558	0.02267150581	0.1581910402	-0.1013332754	-9.675757408	0	51.11128998
256551293122718	-0.07056043297	0.01490038447	0.0228579212	0.1592927724	-0.1004231721	-9.68107605	0	51.06138229
256551293628399	-0.07063766569	0.01484712772	0.0228952039	0.1587897688	-0.09268726408	-9.675567627	0	51.00678635
256551294134073	-0.07043796778	0.01480184961	0.02278601378	0.1506706923	-0.08998090774	-9.672644615	0	50.9437294
256551294639781	-0.07054445893	0.01512941904	0.02282596566	0.1553170234	-0.09048381448	-9.668525696	0	50.896698
256551295145426	-0.07041663677	0.01421062835	0.02275139466	0.1569456756	-0.08624466509	-9.674202919	0	50.80728149
256551295651105	-0.07050985843	0.01461542491	0.02285792492	0.1603465676	-0.08938214183	-9.671255112	0	50.74139786
256551296156777	-0.07020093501	0.01449292246	0.02282862924	0.1627655327	-0.08832832426	-9.675949097	0	50.69432449
256551296662459	-0.07060836256	0.01469532214	0.02309228107	0.1596040726	-0.09766891599	-9.677580833	0	50.65759659
256551297168109	-0.07061104476	0.01473527122	0.02250106074	0.1634840518	-0.09771679342	-9.677075386	0	50.57948303
256551297673803	-0.07036605477	0.01477255579	0.02230132557	0.155412823	-0.09247169644	-9.673195839	0	50.51832581
256551298179477	-0.0702701807	0.0136060901	0.02251170762	0.1642982811	-0.09024432302	-9.674967766	0	50.45999527
256551298685142	-0.07081343234	0.01400556508	0.02246910334	0.1570414603	-0.09869876504	-9.675806999	0	50.40446472
256551299190817	-0.07039798796	0.01503620949	0.02259693295	0.1527303904	-0.09330998361	-9.675974846	0	50.32822418
256551299696455	-0.07000653446	0.01437840518	0.02261823788	0.1532094479	-0.09333390743	-9.684165001	0	50.25760651
256551300202155	-0.07072557509	0.01405882835	0.02203500643	0.1576641351	-0.0889031291	-9.694440842	0	50.20113373
256551300707811	-0.07064032555	0.01395762339	0.02246111259	0.1505030543	-0.09448351711	-9.677627563	0	50.13809586
256551301213487	-0.07047254592	0.01408279873	0.02289254405	0.1534968168	-0.09239985049	-9.680116653	0	50.06939316
256551301719149	-0.07029414177	0.01325189229	0.02239186876	0.1538800001	-0.09977648407	-9.681435585	0	50.01105499
256551302224832	-0.07047526538	0.01353418455	0.02255165763	0.1542152911	-0.08538243175	-9.695924759	0	49.9216156
256551302730491	-0.07017160952	0.01382713206	0.02235192247	0.1554606855	-0.09517806768	-9.680858612	0	49.82842636
256551303236141	-0.0704645738	0.0146154305	0.02227202803	0.1566582322	-0.0993693918	-9.684690475	0	49.78515244
256551303741808	-0.07025150955	0.013696637	0.02257828973	0.1571372449	-0.08550219983	-9.680140495	0	49.76255798
256551304247470	-0.07068030536	0.01413872559	0.02244246937	0.1576162726	-0.1025547162	-9.679445267	0	49.70517731
256551304753133	-0.07029680908	0.01341433823	0.02214952745	0.1531136483	-0.0978365466	-9.68344593	0	49.62705994
256551305258785	-0.07007309049	0.01348091848	0.02181396633	0.1539757848	-0.09182503819	-9.686823845	0	49.57906342
256551305764461	-0.07045124471	0.01345162746	0.02249040641	0.159699887	-0.09228011221	-9.681602478	0	49.53197098
256551306270118	-0.07040064037	0.01311074384	0.02214153484	0.1555565	-0.0939566046	-9.680645943	0	49.47643661
256551306775757	-0.07061370462	0.01353684627	0.02260492183	0.1553169936	-0.09565708786	-9.684883118	0	49.39645004
256551307281430	-0.07061106712	0.0129003562	0.02219746076	0.157999441	-0.09369313717	-9.686153412	0	49.3447113
256551307787077	-0.07050985098	0.01355016604	0.02239986137	0.1528501362	-0.08715476096	-9.683469772	0	49.24776459
256551308292737	-0.0705364719	0.01398159377	0.02226403914	0.1454495192	-0.09412425756	-9.685770988	0	49.17434692
256551308798390	-0.07029678673	0.01365668885	0.02220278978	0.158478424	-0.09393266588	-9.678875923	0	49.11973953
256551309304049	-0.07035537809	0.01302285865	0.02215751447	0.1539758295	-0.0888312608	-9.683088303	0	49.07926941
256551309809698	-0.07036338001	0.01381914597	0.02215218171	0.1551493257	-0.08643625677	-9.687589645	0	49.03221512
256551310315351	-0.07056578994	0.01287904847	0.02209892496	0.1484912038	-0.08813674003	-9.683377266	0	48.97106934
256551310821003	-0.07052318752	0.01304682903	0.02209093235	0.1516047418	-0.08677155524	-9.69046402	0	48.91459656
256551311326642	-0.0705524832	0.0129189929	0.02211224101	0.1523950994	-0.09601634741	-9.689937592	0	48.83554077
256551311832310	-0.07010771334	0.0133477645	0.02228800766	0.1519161016	-0.09113049507	-9.691806793	0	48.79316711
256551312337948	-0.07055776566	0.01301486604	0.02200571634	0.1481558979	-0.08851992339	-9.687900543	0	48.72633362
256551312843601	-0.06996386498	0.01269528735	0.02241850644	0.1563468575	-0.0860530287	-9.686442375	0	48.67079926
256551313349243	-0.07046723366	0.01291100215	0.02223740704	0.1543589979	-0.09524992108	-9.697673798	0	48.61435699
256551313854893	-0.0702355355	0.01316400617	0.02213354595	0.1540716141	-0.08681944013	-9.679232597	0	48.54566574
256551314360542	-0.07027017325	0.01327585522	0.02220278978	0.1558439136	-0.08732240647	-9.692189217	0	48.49389648
256551314866187	-0.07051519305	0.01231712103	0.02207761444	0.1598915309	-0.08593331277	-9.688642502	0	48.43270874
256551315371834	-0.0704272911	0.01235706825	0.02230664901	0.1567301005	-0.09481880069	-9.68596077	0	48.36115646
256551315877473	-0.07043795288	0.01299622655	0.02216283977	0.1526106596	-0.09371713549	-9.687207222	0	48.29904175
256551316383122	-0.07009972632	0.01234108768	0.02213620767	0.1456890553	-0.08681945503	-9.698106766	0	48.23411179
256551316888752	-0.07045394927	0.01276985835	0.02166482806	0.149736613	-0.08679550886	-9.686155319	0	48.17389679
256551317394436	-0.07056845725	0.01254082378	0.02177934349	0.1455453485	-0.08514293283	-9.691660881	0	48.12306595
256551317900067	-0.07008641213	0.01303617284	0.02193913423	0.1520119011	-0.08459207416	-9.690872192	0	48.08166885
256551318405676	-0.07009439915	0.01261539757	0.02161689289	0.1550056785	-0.08763375133	-9.682970047	0	48.02423859
256551318911313	-0.0700917244	0.01250353921	0.02229866199	0.1499761045	-0.09637557715	-9.698895454	0	47.95927429
256551319416958	-0.0702328831	0.01233043615	0.02211756259	0.1498803645	-0.0877295658	-9.694584846	0	47.86611938
256551319922620	-0.07018494606	0.01213336363	0.02202968299	0.1533052176	-0.08590933681	-9.702511787	0	47.80118179
256551320428234	-0.07028079778	0.01298557222	0.02208826691	0.1559636891	-0.08923840523	-9.696595192	0	47.74943542
256551320933875	-0.07016896456	0.01182709914	0.02176069841	0.1514371336	-0.08480761945	-9.685097694	0	47.68824768
256551321439494	-0.0704645589	0.01254349109	0.02177135646	0.1491618305	-0.08693920076	-9.693671227	0	47.64306641
256551321945130	-0.07028613985	0.0121599948	0.02189119719	0.1539757848	-0.08499924839	-9.693842888	0	47.58469391
256551322450775	-0.07007576525	0.01139833219	0.02176070213	0.1532333344	-0.08950189501	-9.689102173	0	47.53482437
256551322956397	-0.07028083503	0.01248489972	0.02185391448	0.1522034705	-0.08914262801	-9.684550285	0	47.50752258
256551323462037	-0.07020893693	0.01207743865	0.02186456695	0.1485391259	-0.08813671768	-9.685555458	0	47.45955658
256551323967669	-0.07004914433	0.01272724569	0.02180064842	0.1549817026	-0.08693919331	-9.689049721	0	47.39837265
256551324473301	-0.07002516836	0.01195492968	0.02187788114	0.146287784	-0.08674760908	-9.698583603	0	47.32591248
256551324978923	-0.07050186396	0.01247690618	0.0215449892	0.15009588	-0.08301137388	-9.692286491	0	47.29673386
256551325484562	-0.07016097754	0.0120108556	0.0215236824	0.1493534148	-0.08377777785	-9.69611454	0	47.25247574
256551325990191	-0.07004113495	0.01150485594	0.02131861448	0.1480122209	-0.08863967657	-9.695231438	0	47.18094635
256551326495815	-0.06998255104	0.0113716973	0.02133726142	0.1509101689	-0.08950189501	-9.692570686	0	47.12918091
256551327001449	-0.07018759847	0.0117152473	0.0217766799	0.1481798589	-0.08928633481	-9.695803642	0	47.04824829
256551327507075	-0.07008643448	0.01156611089	0.02172608301	0.1461201608	-0.07910750806	-9.712356567	0	47.00682449
256551328012696	-0.0698626861	0.01225586981	0.02155564353	0.1482756734	-0.08825647086	-9.696690559	0	46.95225143
256551328518318	-0.07033409178	0.01163535099	0.02169146203	0.1508383155	-0.09019645303	-9.700284958	0	46.89389801
256551329023947	-0.07023554295	0.01237304695	0.02167015709	0.1506227702	-0.08528663218	-9.696596146	0	46.83269119
256551329529571	-0.07011304796	0.01076716185	0.0216621682	0.1518203169	-0.08770561963	-9.688741684	0	46.78656769
256551330035195	-0.069862701	0.01114799269	0.02144911326	0.1513413042	-0.08293953538	-9.700762749	0	46.70565414
256551330540815	-0.07008104771	0.01155812014	0.02151036635	0.1539039314	-0.08337062597	-9.691925049	0	46.66423416
256551331046431	-0.07007040083	0.01143561583	0.02141981572	0.1505030096	-0.0887594223	-9.698678017	0	46.61341476
256551331552061	-0.07020091265	0.01138501521	0.02146243118	0.1480840594	-0.08504714817	-9.69472599	0	46.56354523
256551332057672	-0.07016629726	0.01157409791	0.02140383609	0.1513412893	-0.08804091066	-9.700283051	0	46.51459122
256551332563308	-0.07027815282	0.01095358375	0.0215503145	0.1485870183	-0.07901168615	-9.70457077	0	46.45338821
256551333068912	-0.07020890713	0.01146756858	0.02152900957	0.1554607302	-0.08475972712	-9.696909904	0	46.39222336
256551333574536	-0.06986803561	0.01091363374	0.02143047005	0.147700876	-0.08782536536	-9.702991486	0	46.35836029
256551334080173	-0.07012370229	0.01064998005	0.02135323919	0.1494971365	-0.08511897922	-9.701169014	0	46.27742004
256551334585763	-0.07037138194	0.01100152265	0.02145976201	0.1465512365	-0.08504714072	-9.697986603	0	46.22565842
256551335091385	-0.07038202137	0.01138501521	0.02157694474	0.145497486	-0.0822449699	-9.697410583	0	46.15789413
256551335596998	-0.07006776333	0.01100418158	0.02156363055	0.1433179528	-0.07652086765	-9.70485878	0	46.08351898
256551336102620	-0.07015032321	0.01091363374	0.02123872563	0.1466949433	-0.08988509327	-9.695948601	0	46.03269196
256551336608218	-0.07039801776	0.01107075997	0.02160091326	0.1491378248	-0.0749162212	-9.706106186	0	45.96589279
256551337113837	-0.07012102753	0.01004810445	0.02142781019	0.1487786621	-0.08071213216	-9.698342323	0	45.93577194
256551337619447	-0.07037668675	0.01108940132	0.02128665894	0.1517244577	-0.07860454172	-9.696835518	0	45.90376282
256551338125059	-0.06982540339	0.01035436988	0.02131861076	0.1458806694	-0.08533456922	-9.711732864	0	45.83695221
256551338630678	-0.0699345842	0.01044225693	0.02125736699	0.1480840445	-0.08102349937	-9.700429916	0	45.77766418
256551339136280	-0.0698627159	0.01063400041	0.0212839935	0.1455213875	-0.07491621375	-9.704140663	0	45.72116852
256551339641897	-0.07016897202	0.01097754948	0.02117747068	0.1444196701	-0.08540640026	-9.692334175	0	45.65811157
256551340147542	-0.07008907199	0.009827065282	0.02153699659	0.1417612433	-0.07882010937	-9.704237938	0	45.60448074
256551340653108	-0.07019028813	0.01033839211	0.02155830152	0.1464075595	-0.08411308378	-9.702486038	0	45.56497192
256551341158712	-0.07010769844	0.01014664397	0.0210682787	0.1420965195	-0.08097559959	-9.706869125	0	45.51977921
256551341664324	-0.07000386715	0.01042361371	0.0213319324	0.14305453	-0.07343130559	-9.706197739	0	45.45296478
256551342169956	-0.07027283311	0.0107698245	0.02137454413	0.1476290077	-0.07975414395	-9.705338478	0	45.42096329
256551342675531	-0.0700385049	0.01040496957	0.02135856077	0.1530657262	-0.08016131818	-9.699851036	0	45.35035706
256551343181115	-0.07036603242	0.01064465474	0.0213159509	0.1474373937	-0.07606582344	-9.708162308	0	45.28634644
256551343686743	-0.06983607262	0.01029844489	0.02114284784	0.1488265246	-0.08519084007	-9.70464325	0	45.21483231
256551344192347	-0.07010772824	0.01065530628	0.02094843611	0.1417612135	-0.07424561679	-9.713479996	0	45.16212845
256551344697949	-0.07014233619	0.01015996002	0.02095110156	0.1499042809	-0.0839214772	-9.714365959	0	45.10377502
256551345203551	-0.06983340532	0.01061536092	0.02114551514	0.1500240266	-0.08823251724	-9.722390175	0	45.05578232
256551345709142	-0.07008374482	0.009973539039	0.0209324602	0.1460722387	-0.07702382654	-9.706055641	0	45.01908112
256551346214752	-0.06981477886	0.01010669768	0.02126003057	0.149209708	-0.08308323473	-9.719947815	0	44.97483063
256551346720351	-0.07019829005	0.01021588687	0.02111888118	0.1449945271	-0.08190966398	-9.712258339	0	44.90235519
256551347225943	-0.07014235109	0.01024518069	0.02113752253	0.1472458094	-0.07587422431	-9.71420002	0	44.85624695
256551347731543	-0.07025685906	0.01035171002	0.02144378051	0.1444196999	-0.08037687093	-9.713288307	0	44.76588821
256551348237139	-0.07001983374	0.009832391515	0.02098572254	0.1425755173	-0.07673641294	-9.712138176	0	44.68214417
256551348742740	-0.07005178183	0.009542104788	0.02136122808	0.1438209116	-0.07771838456	-9.713794708	0	44.61719131
256551349248340	-0.06959907711	0.009747168981	0.0211535003	0.1443239003	-0.07666455209	-9.709196091	0	44.55130005
256551349753930	-0.07014233619	0.00967792701	0.02091914043	0.1466949582	-0.07977810502	-9.708378792	0	44.54000473
256551350259519	-0.0699505806	0.009797767736	0.0210203398	0.1454734951	-0.07951466739	-9.727015495	0	44.46474075
256551350765128	-0.06991063803	0.0100827273	0.02090582624	0.1484193802	-0.08265212923	-9.718221664	0	44.37813568
256551351270710	-0.06980677694	0.009262474254	0.02104697376	0.140491873	-0.07391031832	-9.703538895	0	44.32261276
256551351776292	-0.07000383735	0.009259806946	0.02085522562	0.1450663507	-0.08308323473	-9.72385025	0	44.26991653
256551352281893	-0.07019293308	0.009507483803	0.02106828429	0.1402283609	-0.07908353209	-9.715180397	0	44.19083405
256551352787473	-0.06971355528	0.009329052642	0.02093778364	0.1421444267	-0.08308321983	-9.711755753	0	44.14847565
256551353293046	-0.07013434917	0.009092030115	0.02081527747	0.1491378695	-0.07865243405	-9.711110115	0	44.08261108
256551353798660	-0.06993194669	0.009249158204	0.02119877376	0.1397254467	-0.0765927285	-9.717027664	0	44.01672363
256551354304253	-0.06995857507	0.009070726112	0.02111622132	0.1440604329	-0.08164618909	-9.71824646	0	43.97813797
256551354809867	-0.06969227642	0.008910938166	0.02098039351	0.1479403228	-0.08195757866	-9.710487366	0	43.92544556
256551355315422	-0.06999054551	0.008796421811	0.02105496079	0.1420485973	-0.07745491713	-9.71740818	0	43.8670845
256551355821009	-0.06985738128	0.008828378282	0.02112154476	0.1419049203	-0.07929909229	-9.715517044	0	43.78236389
256551356326584	-0.06990797073	0.008988169953	0.0210363213	0.1422881037	-0.07781417668	-9.71180439	0	43.71367264
256551356832188	-0.06986802816	0.008839031681	0.02082060091	0.1429586858	-0.08102352917	-9.727059364	0	43.64684677
256551357337745	-0.06978812814	0.008881643414	0.02060488984	0.1441083252	-0.07740703225	-9.723035812	0	43.58755493
256551357843331	-0.0698280707	0.008844358847	0.02102034725	0.1441083252	-0.08090375364	-9.723490715	0	43.4972229
256551358348911	-0.06955907494	0.008514125831	0.02093778551	0.1420007348	-0.07747887075	-9.721360207	0	43.41153717
256551358854495	-0.07002248615	0.009118663147	0.02101235278	0.1458327323	-0.07551496476	-9.718655586	0	43.36355591
256551359360099	-0.06966029108	0.008269117214	0.02101768181	0.1439166963	-0.07695197314	-9.717886925	0	43.29204178
256551359865653	-0.07003314793	0.008090685122	0.02088718861	0.1470541954	-0.08023314923	-9.722291946	0	43.22802734
256551360371228	-0.06976418197	0.008876315318	0.02097773179	0.1454255581	-0.08131089807	-9.728232384	0	43.14428329
256551360876796	-0.07004379481	0.008399611339	0.02051700279	0.1389111131	-0.07793392241	-9.718795776	0	43.06237411
256551361382381	-0.06972420216	0.008548744954	0.0207353849	0.1447070539	-0.07376661152	-9.727728844	0	43.00209808
256551361887946	-0.06979878247	0.008700550534	0.02061287872	0.1399649382	-0.07980204374	-9.726747513	0	42.91833496
256551362393523	-0.06995058805	0.008394285105	0.02064217255	0.1375459731	-0.07501201332	-9.723804474	0	42.86187363
256551362899106	-0.06989198923	0.008314389735	0.02083658613	0.1437970102	-0.0790116936	-9.726150513	0	42.80351639
256551363404673	-0.06994526833	0.008162590675	0.02103898674	0.1446591914	-0.07561075687	-9.727108955	0	42.73103333
256551363910240	-0.06978014112	0.007984157652	0.020953767	0.142312035	-0.07412586361	-9.724372864	0	42.62280655
256551364415811	-0.06983073801	0.007853659801	0.02088984847	0.142359972	-0.08035292476	-9.736280441	0	42.53055573
256551364921375	-0.06984938681	0.008074704558	0.02069277316	0.1429108232	-0.08313112706	-9.723421097	0	42.45811081
256551365426958	-0.07020892203	0.007949538529	0.02070342749	0.1413540393	-0.07537125796	-9.728785515	0	42.41480637
256551365932516	-0.06955377012	0.007970841601	0.02071674354	0.1426234096	-0.07589818537	-9.721982956	0	42.34138489
256551366438069	-0.0702515468	0.008010786958	0.02084190771	0.1419049203	-0.08813670278	-9.720665932	0	42.27364349
256551366943639	-0.06956443936	0.007925567217	0.0207087528	0.1449465752	-0.07407794148	-9.721481323	0	42.20867538
256551367449204	-0.07005446404	0.007957526483	0.02092446573	0.1503593326	-0.07537128031	-9.722031593	0	42.1578598
256551367954765	-0.06994262338	0.007408915553	0.02054363489	0.142359972	-0.07479644567	-9.730819702	0	42.08823395
256551368460332	-0.0698467344	0.006929544266	0.02069543116	0.1424318254	-0.07711963356	-9.72274971	0	42.0242157
256551368965893	-0.06966296583	0.007406249642	0.02062618732	0.1410187483	-0.07589817047	-9.727371216	0	41.9395256
256551369471458	-0.06991862506	0.007496798411	0.02057559602	0.1451860368	-0.07496410608	-9.723181725	0	41.85198212
256551369977012	-0.06969226897	0.006807038561	0.0204477571	0.1505030394	-0.07738309354	-9.729311943	0	41.79737854
256551370482572	-0.07009706646	0.007640607655	0.0206554886	0.1439406723	-0.07716751099	-9.720067978	0	41.73434448
256551370988125	-0.06957507879	0.006873617414	0.02055162191	0.1363723874	-0.07937095314	-9.726963043	0	41.69670486
256551371493699	-0.06985204667	0.006785734557	0.02048237994	0.1428149641	-0.08023313433	-9.725262642	0	41.60916519
256551371999242	-0.06994258612	0.007041396573	0.02074337378	0.141330108	-0.07300019264	-9.735322952	0	41.54047775
256551372504793	-0.06956177205	0.007161238696	0.02046906389	0.1358934194	-0.07568261027	-9.729408264	0	41.43411255
256551373010356	-0.06989732385	0.007235809229	0.02040514722	0.1411385089	-0.07743097842	-9.730606079	0	41.34658813
256551373515916	-0.06966563314	0.006945523433	0.02059157379	0.1387434602	-0.08111931384	-9.726679802	0	41.29482269
256551374021463	-0.06992927194	0.006913566031	0.02033324912	0.1426473409	-0.07220984995	-9.746004105	0	41.21481323
256551374527015	-0.06973752379	0.007419567555	0.02043444104	0.1370908916	-0.07247328758	-9.733263016	0	41.13294983
256551375032568	-0.06982807815	0.007347662468	0.02036254294	0.1386237144	-0.0690484345	-9.73651886	0	41.06422424
256551375538104	-0.06999319047	0.006689861417	0.02067679539	0.1397494227	-0.07199428976	-9.73182869	0	41.0002327
256551376043657	-0.06978814304	0.006695186719	0.02039450034	0.1442759931	-0.07122787088	-9.733312607	0	40.91553879
256551376549209	-0.06933538616	0.006953515112	0.02043710835	0.1334984004	-0.06143224239	-9.72636795	0	40.85246658
256551377054748	-0.06999851763	0.006058693398	0.02035455033	0.1391745806	-0.07568260282	-9.731228828	0	40.78847504
256551377560308	-0.06934072077	0.006673881318	0.02022671327	0.1429826766	-0.07424560189	-9.721647263	0	40.69528198
256551378065842	-0.07003848255	0.006966830231	0.0202586744	0.1398212761	-0.0746288076	-9.744616508	0	40.61718369
256551378571386	-0.06973221898	0.006242450327	0.02037585527	0.1381926388	-0.07177872211	-9.733359337	0	40.54565811
256551379076923	-0.06964699924	0.005901564844	0.02039183117	0.1402284056	-0.07335946709	-9.732618332	0	40.46375275
256551379582479	-0.0696869418	0.005917544011	0.02035721019	0.1306004375	-0.06902447343	-9.723900795	0	40.4167099
256551380088007	-0.06996656954	0.006386260968	0.02035455219	0.137354359	-0.07453301549	-9.742675781	0	40.33952713
256551380593560	-0.06959638745	0.006588660181	0.02053031698	0.1352946609	-0.06935977191	-9.732903481	0	40.25387955
256551381099087	-0.06974286586	0.006087986752	0.02035454661	0.1454495341	-0.0713955313	-9.737335205	0	40.18047714
256551381604629	-0.06972686946	0.006314353086	0.02027465776	0.1410426944	-0.07441324741	-9.742007256	0	40.08634949
256551382110164	-0.06976151466	0.006362291519	0.02013350464	0.1410426944	-0.07259305567	-9.730459213	0	40.00165558
256551382615709	-0.06961236149	0.005962816998	0.02016013488	0.1427911073	-0.07204217464	-9.729287148	0	39.98284149
256551383121245	-0.06947654486	0.006293047685	0.02001632936	0.1400846839	-0.07333549112	-9.730628967	0	39.89245987
256551383626770	-0.06966564804	0.005821669474	0.02010687254	0.1400607377	-0.06957532465	-9.72813797	0	39.81248474
256551384132311	-0.06984937936	0.005720469635	0.02018676698	0.1469344348	-0.07084467262	-9.742940903	0	39.73905945
256551384637832	-0.06977215409	0.005454153754	0.02041846514	0.1381447315	-0.06892865896	-9.738605499	0	39.6553154
256551385143378	-0.06962833554	0.005550027825	0.0202906318	0.133043319	-0.07625744492	-9.735609055	0	39.5837822
256551385648900	-0.0695804134	0.0056405738	0.02026666142	0.1419289112	-0.07290438563	-9.742149353	0	39.51882172
256551386154426	-0.06954579055	0.005416870117	0.02047172748	0.1383603215	-0.07038962096	-9.744447708	0	39.44731522
256551386659977	-0.0697029233	0.005997437518	0.02044242993	0.1410187185	-0.06751559675	-9.742507935	0	39.36447906
256551387165483	-0.06919957697	0.005502090789	0.02050102502	0.1294747442	-0.0725690797	-9.728926659	0	39.29859543
256551387671017	-0.06979611516	0.005558018107	0.01992311142	0.1383363456	-0.07005432248	-9.738244057	0	39.22896957
256551388176528	-0.06956709921	0.0053875749	0.0201841034	0.1382884383	-0.06715634465	-9.735730171	0	39.14235687
256551388682070	-0.06967363507	0.005054680631	0.01992843673	0.1387674809	-0.07170686871	-9.738415718	0	39.08966064
256551389187583	-0.06955110282	0.00521446811	0.01997904293	0.1336420625	-0.0659827739	-9.729862213	0	39.00024033
256551389693160	-0.06970822811	0.005600627046	0.02004828118	0.1368035227	-0.0763771683	-9.731824875	0	38.94374847
256551390198638	-0.06961502135	0.00543551147	0.02014416456	0.1355102211	-0.07137158513	-9.734677315	0	38.88260269
256551390704155	-0.06988401711	0.005049352534	0.02014682256	0.1410187632	-0.06667733938	-9.739059448	0	38.81578064
256551391209678	-0.06966563314	0.00456199469	0.02012552135	0.1346480101	-0.0732396841	-9.734103203	0	38.71882248
256551391715186	-0.07003048062	0.005009406712	0.01991245896	0.1385039836	-0.07331154495	-9.73529911	0	38.64823914
256551392220711	-0.06950850785	0.004404868931	0.02021872252	0.1351988316	-0.06567143649	-9.732998848	0	38.58892441
256551392726234	-0.06950585544	0.004796353169	0.0202373676	0.1377854645	-0.06777905673	-9.746222496	0	38.4882431
256551393231755	-0.06926616281	0.005060005467	0.01998702623	0.137522012	-0.07108418643	-9.744925499	0	38.41198349
256551393737265	-0.06953781843	0.004378236365	0.01996839419	0.1353665143	-0.06718030572	-9.734726906	0	38.3301239
256551394242783	-0.06968428195	0.004897552542	0.01990713365	0.1398451924	-0.06140830368	-9.737071037	0	38.27271652
256551394748291	-0.06947121024	0.004183826502	0.01994974539	0.1374502033	-0.07050934434	-9.730056763	0	38.21434402
256551395253811	-0.06969492882	0.004625910427	0.01984854415	0.1353425533	-0.06579119712	-9.738965034	0	38.15411758
256551395759320	-0.06951382756	0.005206481088	0.01982458122	0.137713626	-0.06974297017	-9.738508224	0	38.09200668
256551396264851	-0.0696336776	0.004301005043	0.01981125772	0.1329954267	-0.07084468007	-9.742603302	0	37.99599457
256551396770342	-0.06968428195	0.004061321728	0.01984588429	0.1362526715	-0.06777906418	-9.737358093	0	37.91978073
256551397275851	-0.06944192201	0.004194478504	0.01989647932	0.1385518759	-0.06674920022	-9.736352921	0	37.82564545
256551397781362	-0.06929545105	0.003486077767	0.02017078921	0.1344563961	-0.06667733192	-9.738078117	0	37.77011108
256551398286860	-0.06983073801	0.004095941316	0.01984321512	0.1266486496	-0.06600674242	-9.73209095	0	37.71554565
256551398792405	-0.06965231895	0.004396879114	0.01998170279	0.1384321302	-0.06950348616	-9.72754097	0	37.67600632
256551399297886	-0.06957509369	0.003997405991	0.01961951517	0.1377375871	-0.06591092795	-9.728999138	0	37.59693909
256551399803399	-0.0694579035	0.004471447784	0.01957423799	0.1348874867	-0.0673000291	-9.743490219	0	37.50754547
256551400308892	-0.06957507879	0.003584614722	0.01989914663	0.137689665	-0.06648574024	-9.732711792	0	37.42376328
256551400814401	-0.06928480417	0.004095941782	0.01976066083	0.1336420923	-0.06480923295	-9.738940239	0	37.35884094
256551401319939	-0.06970026344	0.004048004281	0.01981392503	0.1366598159	-0.06375542283	-9.736569405	0	37.29483414
256551401825403	-0.06937269121	0.004002730828	0.01980061084	0.1365879923	-0.07101231813	-9.738747597	0	37.23458481
256551402330900	-0.06939397007	0.003526025452	0.01977930404	0.1331151575	-0.06449785829	-9.739970207	0	37.15272141
256551402836397	-0.06929279119	0.003874898655	0.01976598613	0.1385279	-0.06828200817	-9.740949631	0	37.08212662
256551403341914	-0.06957773864	0.003552657086	0.01977131516	0.1333786249	-0.06540796906	-9.744137764	0	36.98049927
256551403847398	-0.06930611283	0.003866910934	0.01976864971	0.1343366355	-0.05963600054	-9.740138054	0	36.92589951
256551404352901	-0.06959106773	0.003624561708	0.01984588429	0.1332588792	-0.06500083953	-9.735971451	0	36.86941147
256551404858400	-0.06941531599	0.003217098536	0.01988049969	0.1337378919	-0.06313271075	-9.748282433	0	36.80355072
256551405363890	-0.06997457147	0.003720436944	0.01950233057	0.1357018501	-0.06871311367	-9.73836422	0	36.69340897
256551405869379	-0.06951116771	0.003712445963	0.01975267008	0.1321571916	-0.06828201562	-9.737167358	0	36.64729309
256551406374888	-0.06954579055	0.003526024986	0.01984588429	0.1308159828	-0.06224656105	-9.731945992	0	36.59931183
256551406880374	-0.0693859905	0.002860235283	0.01969940588	0.136492148	-0.06380333006	-9.734745979	0	36.53436661
256551407385858	-0.06951915473	0.003507383168	0.01953429356	0.1379531473	-0.06880891323	-9.755872726	0	36.44871902
256551407891346	-0.06940197945	0.003275687806	0.01973136887	0.1328996569	-0.06605463475	-9.730507851	0	36.34801102
256551408396842	-0.06988667697	0.003081277013	0.01972603798	0.1380728632	-0.06806644052	-9.739254951	0	36.30377579
256551408902336	-0.06935936958	0.002660498023	0.0196754355	0.1308878064	-0.06579118222	-9.734678268	0	36.22755051
256551409407824	-0.06966830045	0.003062634729	0.01951032504	0.1379292011	-0.06301296502	-9.740304947	0	36.1692009
256551409913286	-0.06944460422	0.003571298439	0.0194490701	0.134815678	-0.06641388685	-9.739370346	0	36.09389114
256551410418793	-0.06957243383	0.002585929586	0.01954227872	0.1317739636	-0.06703660637	-9.736569405	0	36.02990723
256551410924298	-0.06937801838	0.002785666846	0.01935852133	0.1300256103	-0.06368356198	-9.733670235	0	35.97343063
256551411429773	-0.06946057081	0.003081277478	0.01943841577	0.1365879625	-0.06480921805	-9.736186981	0	35.92165375
256551411935251	-0.06942857802	0.003062635195	0.01955559663	0.1379292309	-0.05836662278	-9.738293648	0	35.85954666
256551412440746	-0.06923419982	0.002966761589	0.01938515529	0.1300495416	-0.05683382228	-9.740041733	0	35.81155777
256551412946219	-0.06929011643	0.002977413824	0.01954760589	0.1344084889	-0.05992338061	-9.737045288	0	35.75318909
256551413451733	-0.06943660229	0.002572613303	0.01963815652	0.1374741197	-0.06662943959	-9.737503052	0	35.65532303
256551413957187	-0.06956975907	0.00291349832	0.01936916821	0.1357976049	-0.05965994298	-9.737286568	0	35.59791183
256551414462670	-0.06948187947	0.002876213519	0.01943575777	0.1269599646	-0.06440208852	-9.726772308	0	35.54896164
256551414968143	-0.06978280842	0.002830940066	0.01962483674	0.1313428879	-0.05740861595	-9.734126091	0	35.48402405
256551415473636	-0.06938599795	0.002111887094	0.01937183551	0.1331391186	-0.0647373721	-9.741597176	0	35.42285538
256551415979111	-0.06960704923	0.002279665554	0.01948368736	0.1300495416	-0.06121670082	-9.737503052	0	35.34848785
256551416484590	-0.0690131709	0.002775013912	0.0191587843	0.138192609	-0.06435417384	-9.740665436	0	35.27885437
256551416990093	-0.06945257634	0.002135855146	0.01931857131	0.1332110018	-0.06306085736	-9.730989456	0	35.2120285
256551417495535	-0.06921290606	0.0021864546	0.0195076596	0.1334983706	-0.05874983594	-9.735395432	0	35.17625809
256551418001023	-0.06944458932	0.00185888703	0.01916943118	0.1347677559	-0.063276425	-9.743946075	0	35.12448502
256551418506490	-0.06902646273	0.001816276461	0.01956625096	0.1325403899	-0.05980364606	-9.737622261	0	35.06804276
256551419011970	-0.06947655976	0.002103896579	0.01914546639	0.1295226514	-0.06603068858	-9.72662735	0	35.00308609
256551419517440	-0.0690131709	0.002277002437	0.0194330886	0.1351988614	-0.06136041135	-9.735466957	0	34.95129013
256551420022932	-0.06952182949	0.001541970531	0.01938514784	0.1297382265	-0.05901328102	-9.736066818	0	34.87220764
256551420528381	-0.06926617026	0.001850896864	0.01943575218	0.1296184659	-0.05851033702	-9.730750084	0	34.8214035
256551421033858	-0.0694925189	0.002095907694	0.0194064565	0.133067295	-0.06207890064	-9.726366997	0	34.76587296
256551421539326	-0.06898918003	0.001922802301	0.01920938119	0.1326840967	-0.06052213907	-9.738411903	0	34.71409607
256551422044796	-0.06957773864	0.002095907927	0.01936650649	0.1326840967	-0.06483319402	-9.724186897	0	34.6435051
256551422550271	-0.06913033873	0.002221076516	0.01941178739	0.1291154921	-0.05716910213	-9.730438232	0	34.58799744
256551423055731	-0.06950318068	0.002213087166	0.01911883615	0.1328278035	-0.05343287811	-9.732903481	0	34.52962494
256551423561198	-0.06922886521	0.002047971124	0.01900698431	0.1300016493	-0.05712121353	-9.745886803	0	34.45528412
256551424066656	-0.06963367015	0.002189118415	0.01918274909	0.1314865798	-0.05745651945	-9.734534264	0	34.37716675
256551424572144	-0.06909038126	0.001568601816	0.01914546639	0.1329235882	-0.06011497974	-9.74047184	0	34.32068253
256551425077594	-0.06947655231	0.001906823367	0.01904958859	0.1310554892	-0.06349197775	-9.739468575	0	34.22281265
256551425583044	-0.06922886521	0.002314287238	0.01910818182	0.1400607526	-0.05769601837	-9.740114212	0	34.15127563
256551426088524	-0.06950052828	0.00152332813	0.01917209849	0.1338097453	-0.06248605251	-9.746460915	0	34.08444977
256551426593991	-0.06928212941	0.001414139057	0.01942775957	0.1339773685	-0.06068979204	-9.736738205	0	34.04587555
256551427099447	-0.06955909729	0.002031991957	0.01928395219	0.1319176853	-0.06380330771	-9.745764732	0	33.98187637
256551427604918	-0.06903447211	0.00148071791	0.01910285465	0.1311991513	-0.05973176658	-9.73503685	0	33.90563202
256551428110379	-0.06946855038	0.001091896091	0.01903893612	0.1346479803	-0.05779182166	-9.74497509	0	33.82753372
256551428615831	-0.06914366782	0.001677791588	0.01883653924	0.1321332455	-0.05575606227	-9.740376472	0	33.76446915
256551429121305	-0.06946055591	0.001169127994	0.01879925281	0.1304327548	-0.05894143879	-9.731133461	0	33.73151779
256551429626748	-0.06915695965	0.001139832893	0.01934253611	0.1365879625	-0.0559476465	-9.740205765	0	33.69857788
256551430132209	-0.06906642765	0.0006418218836	0.01913214847	0.1246367991	-0.05910907686	-9.735157013	0	33.65812302
256551430637661	-0.06927680969	0.0008362323861	0.01910818182	0.1273671389	-0.0638512224	-9.739585876	0	33.61859894
256551431143120	-0.06914366782	0.001051948755	0.01904959045	0.133210972	-0.05918090045	-9.742102623	0	33.54986954
256551431648572	-0.06925552338	0.001557948999	0.0189324189	0.1385039687	-0.05910908431	-9.743942261	0	33.45576859
256551432154039	-0.06913832575	0.001169127529	0.01917209849	0.1263133436	-0.05738465115	-9.734006882	0	33.41624069
256551432659478	-0.06918092072	0.001190432929	0.01919872873	0.1302890629	-0.05977967754	-9.736735344	0	33.35222626
256551433164935	-0.06933539361	0.001832255046	0.01886050962	0.1290436387	-0.06068979576	-9.739970207	0	33.32493591
256551433670393	-0.06945259124	9.321068501e-05	0.0192946028	0.1295945197	-0.06219864264	-9.745408058	0	33.2797699
256551434175837	-0.06930343807	0.0008815061301	0.0192440059	0.1307440847	-0.05745650083	-9.740951538	0	33.20447159
256551434681302	-0.06951117516	0.0008309062105	0.01913214847	0.1256906539	-0.05678590015	-9.738200188	0	33.1442337
256551435186743	-0.06901583076	0.0006737796357	0.01927595958	0.1309596598	-0.05482199043	-9.743323326	0	33.07741928
256551435692196	-0.06918893009	0.0006551375845	0.01898833737	0.1296903044	-0.05175638571	-9.740470886	0	33.02283096
256551436197635	-0.06894126534	0.0006817692192	0.01877261885	0.1314147264	-0.05716913193	-9.73532486	0	32.97011185
256551436703096	-0.06916230172	0.0005166532937	0.01931058057	0.126385197	-0.05791156739	-9.736495972	0	32.93718338
256551437208536	-0.06905843318	0.001302285586	0.01911883615	0.1250199974	-0.0542950891	-9.744544983	0	32.86378098
256551437713989	-0.06938067079	0.0004633900535	0.01886050962	0.1319416165	-0.05537284911	-9.740352631	0	32.78941345
256551438219436	-0.06921290606	0.001294296468	0.01899100281	0.1329954565	-0.05664220825	-9.749788284	0	32.70660782
256551438724880	-0.06956977397	0.000450074207	0.01886849664	0.1267922968	-0.06057003886	-9.748903275	0	32.64447021
256551439230314	-0.06907707453	0.0005459479871	0.01904426515	0.1334504932	-0.05886958539	-9.740834236	0	32.60305405
256551439735765	-0.06914899498	0.0006524745259	0.01888980158	0.1276066154	-0.05652246252	-9.741502762	0	32.57763672
256551440241208	-0.06918361783	0.0003675163316	0.01873267256	0.1329235882	-0.05599556863	-9.739013672	0	32.51741791
256551440746625	-0.06957508624	0.0007669904735	0.01904160157	0.1312710196	-0.05920488387	-9.733049393	0	32.45341873
256551441252091	-0.06869624555	0.00120641198	0.01883653924	0.1317739934	-0.05381609499	-9.742126465	0	32.40916824
256551441757526	-0.06911969185	0.0003808320325	0.01889779232	0.1297382563	-0.05400768295	-9.732162476	0	32.35552216
256551442262953	-0.06932207197	0.0004207794555	0.01894572936	0.1277742684	-0.05625902116	-9.732543945	0	32.33295822
256551442768409	-0.06925284863	0.0003169161791	0.01865810528	0.1276785284	-0.05872588977	-9.739850044	0	32.26989365
256551443273856	-0.06901847571	0.0003914845583	0.0189377442	0.1283251196	-0.0559476614	-9.73335743	0	32.19647598
256551443779276	-0.06940995902	0.000953411567	0.01891909353	0.1321092993	-0.05831871927	-9.738485336	0	32.13249207
256551444284737	-0.0688533783	0.0003755056823	0.01888714172	0.1281095892	-0.05355262756	-9.735588074	0	32.05530548
256551444790180	-0.06966029853	0.0006498111761	0.01877794974	0.1250200123	-0.05736073479	-9.740159988	0	32.01482773
256551445295588	-0.06890396774	6.125266373e-05	0.01897236332	0.1324685216	-0.06136040017	-9.733428955	0	31.95554352
256551445801057	-0.06936469674	0.0001704422757	0.01868473552	0.1247565597	-0.06028264761	-9.740493774	0	31.91225815
256551446306473	-0.06872289628	-0.0001651160419	0.01909220591	0.1263133436	-0.05599554256	-9.732953072	0	31.87177467
256551446811900	-0.06940730661	0	0.01865278371	0.1292352527	-0.05601950362	-9.739251137	0	31.80589104
256551447317343	-0.06883738935	-0.000106526415	0.0186714232	0.1283730417	-0.0589893423	-9.725335121	0	31.74849319
256551447822782	-0.06926616281	4.52737404e-05	0.01892708614	0.1276545525	-0.06102509424	-9.735634804	0	31.71084023
256551448328216	-0.06877347082	-0.0006338323583	0.01884452626	0.1220741719	-0.05400769413	-9.728689194	0	31.64588547
256551448833644	-0.06924483925	-7.45685029e-05	0.01879392937	0.1332109869	-0.05558841676	-9.742749214	0	31.60353851
256551449339053	-0.06887999922	-2.396838681e-05	0.01888180897	0.1307441145	-0.0612646006	-9.729958534	0	31.55178642
256551449844492	-0.06895987689	-3.994743383e-05	0.01853293553	0.129618451	-0.05168453604	-9.738222122	0	31.47742844
256551450349905	-0.06879212707	-0.0003195793543	0.01867408492	0.1314626783	-0.05539681017	-9.736352921	0	31.44541931
256551450855366	-0.06923952699	-0.0005566006876	0.01848499663	0.1253792644	-0.05436694622	-9.745810509	0	31.40872002
256551451360806	-0.06850981712	-0.0003382215218	0.01845570095	0.1278222054	-0.06126460433	-9.739081383	0	31.34378624
256551451866225	-0.06907173246	8.522110147e-05	0.01880457997	0.1292831451	-0.05451064929	-9.744735718	0	31.28072357
256551452371661	-0.06891197711	-0.0003115898871	0.01839445345	0.126504913	-0.05300178006	-9.738391876	0	31.21578217
256551452877093	-0.06948453188	-0.0005166532937	0.01841576025	0.1265048981	-0.05537286028	-9.732520103	0	31.18943024
256551453382518	-0.06848584116	-0.0008628642536	0.01866876148	0.1269839853	-0.0564985089	-9.741024017	0	31.14144135
256551453887932	-0.06921289116	-0.0001810948161	0.01844771765	0.1322289854	-0.05752836168	-9.725767136	0	31.09248543
256551454393371	-0.06861900538	-0.0009880326688	0.01871136948	0.1266486347	-0.04761300609	-9.741289139	0	31.01908112
256551454898777	-0.06891195476	-0.0005060007097	0.01874066517	0.1276066601	-0.05637875944	-9.735970497	0	30.97767067
256551455404220	-0.06886935234	-0.0002024002461	0.01879925467	0.1319895536	-0.05728885904	-9.741670609	0	30.92401314
256551455909636	-0.06916230172	-0.0006684534601	0.01879126392	0.1268641949	-0.05403165147	-9.73680687	0	30.86375046
256551456415060	-0.06841927022	-0.000194410808	0.01851962134	0.1259301305	-0.05645062402	-9.748279572	0	30.81671333
256551456920482	-0.06922354549	-0.0004340951855	0.01867941022	0.1260498911	-0.05201983452	-9.730461121	0	30.78096199
256551457425907	-0.06868559867	-0.0009374327492	0.01853826083	0.1263133585	-0.0574804619	-9.72586441	0	30.72918129
256551457931337	-0.06914630532	-0.0005645900965	0.0185915269	0.1265289038	-0.04725375026	-9.735038757	0	30.66044617
256551458436743	-0.06853645295	-0.0003302319965	0.01855157875	0.1276545227	-0.05652246997	-9.726557732	0	30.6312809
256551458942196	-0.06911437213	-0.0001970738667	0.0186075028	0.127582714	-0.05395979807	-9.737359047	0	30.5766964
256551459447586	-0.06880541891	-0.000908137823	0.01836249232	0.1269839406	-0.05230722949	-9.730390549	0	30.53810501
256551459953011	-0.06917827576	-0.0002583265887	0.01846369728	0.1288999766	-0.0575283654	-9.742006302	0	30.4806881
256551460458429	-0.06874684244	-0.001227716915	0.0184557084	0.1274629533	-0.05407953262	-9.737814903	0	30.41576195
256551460963847	-0.06920490414	-0.0007856325828	0.01857022196	0.127391085	-0.05513334274	-9.734676361	0	30.36682129
256551461469251	-0.06856574118	-0.001171790878	0.0185808707	0.128780216	-0.04835544527	-9.742101669	0	30.33763504
256551461974682	-0.06909839064	-0.0008522116113	0.01864745654	0.1277503073	-0.05683381483	-9.734628677	0	30.27928543
256551462480117	-0.06875483692	-0.0012650016	0.01867408678	0.1333067715	-0.05295388401	-9.739970207	0	30.23976517
256551462985498	-0.0689092949	-0.0009374327492	0.0186554417	0.127415061	-0.05554050207	-9.729598045	0	30.16823196
256551463490929	-0.06879211962	-0.0006737797521	0.01877261698	0.1261217594	-0.05036725849	-9.740829468	0	30.10704422
256551463996332	-0.06888800114	-0.0009667275008	0.01860217564	0.1225770935	-0.05110971257	-9.729909897	0	30.07598686
256551464501759	-0.06869889796	-0.001267664367	0.01872734725	0.1264809817	-0.05175637454	-9.742483139	0	30.02423859
256551465007133	-0.06906107813	-0.0005299690529	0.0183118917	0.1295705885	-0.0510378778	-9.744401932	0	29.96963692
256551465512573	-0.06935136765	-0.001222390682	0.0185755454	0.1231039986	-0.0553249456	-9.736568451	0	29.94516373
256551466017984	-0.06879744679	-0.001217064797	0.01828260161	0.1260738522	-0.05726492777	-9.736783981	0	29.87458801
256551466523403	-0.06869358569	-0.00100667472	0.01815476082	0.124541007	-0.04617597535	-9.738723755	0	29.8049469
256551467028806	-0.06914097816	-0.001067927573	0.01840244047	0.130983606	-0.05321733654	-9.734555244	0	29.77575493
256551467534216	-0.06854711473	-0.001185106696	0.01834384911	0.1275347769	-0.05245094001	-9.739107132	0	29.72492981
256551468039617	-0.06888266653	-0.0006631270517	0.01826129295	0.1267444193	-0.05451064557	-9.738077164	0	29.68164253
256551468545026	-0.06871754676	-0.0008841697127	0.01831455715	0.1232476681	-0.04888235778	-9.734701157	0	29.63742256
256551469050438	-0.0690664202	-0.001555286348	0.01814144664	0.1251397431	-0.05721700937	-9.748376846	0	29.59318161
256551469555843	-0.06849386543	-0.001677791588	0.01834917814	0.1288999468	-0.04797223583	-9.732305527	0	29.56305122
256551470061253	-0.06897587329	-0.001222391147	0.01833852008	0.1315105259	-0.05091812089	-9.735846519	0	29.50846863
256551470566655	-0.06869624555	-0.001009337953	0.01856223121	0.1276784837	-0.05096601695	-9.737409592	0	29.47176743
256551471072076	-0.06902913749	-0.0007243797299	0.01842907444	0.1279658675	-0.05369633436	-9.738148689	0	29.40777016
256551471577461	-0.06877879798	-0.0006817693356	0.01836249419	0.1250200123	-0.05106182024	-9.732807159	0	29.37294197
256551472082879	-0.06882940233	-0.001161138294	0.0190469306	0.1227926612	-0.05439089611	-9.729167938	0	29.3315258
256551472588274	-0.06875217706	-0.00165382307	0.0181893874	0.1263133734	-0.055516541	-9.743680954	0	29.26283646
256551473093684	-0.06879210472	-0.0008042747504	0.01825064234	0.1257863939	-0.05132527277	-9.736855507	0	29.2458992
256551473599083	-0.06863498688	-0.001443433226	0.01848766394	0.1334505081	-0.05146898329	-9.740159988	0	29.2110672
256551474104492	-0.06922089309	-0.001262338716	0.01809085533	0.1221699342	-0.0530496873	-9.733623505	0	29.15270042
256551474609923	-0.06870157272	-0.001826928346	0.01824264787	0.1255948097	-0.0556602478	-9.736063957	0	29.129179
256551475115284	-0.06904245913	-0.001462075626	0.01836782135	0.1274390221	-0.05072650686	-9.739851952	0	29.06801033
256551475620704	-0.06892261654	-0.001147822244	0.01830390468	0.1252116114	-0.04708607867	-9.7340765	0	29.03695297
256551476126096	-0.06903445721	-0.001661812654	0.01842641085	0.1295705587	-0.05551655963	-9.742199898	0	28.97764969
256551476631503	-0.0685204789	-0.001528654713	0.01840244047	0.1237506643	-0.05221143737	-9.739898682	0	28.92683029
256551477136898	-0.06868824363	-0.00165382307	0.0182266701	0.1219304651	-0.04809199274	-9.731971741	0	28.91458893
256551477642290	-0.06891728938	-0.001984055387	0.0184636917	0.1234153658	-0.05324127898	-9.74075985	0	28.88541985
256551478147693	-0.06864298135	-0.001984055387	0.01813612692	0.1254750937	-0.05465434492	-9.732569695	0	28.8345871
256551478653090	-0.06911168247	-0.001888181432	0.01816542447	0.1244452	-0.04780459404	-9.734315872	0	28.79317093
256551479158489	-0.06881877035	-0.001821601996	0.01838113554	0.1305764616	-0.04955295473	-9.743924141	0	28.74705315
256551479663887	-0.06888531893	-0.001872202381	0.01835450716	0.1226489395	-0.04619992524	-9.737669945	0	28.69248009
256551480169277	-0.06862434	-0.001970739337	0.01815210097	0.1228884459	-0.05460644141	-9.732996941	0	28.65200043
256551480674676	-0.06900250912	-0.001403485774	0.01863946393	0.1271515787	-0.04768485576	-9.729096413	0	28.6124649
256551481180094	-0.06861635298	-0.002340919105	0.0183278732	0.1248284131	-0.05108575523	-9.725622177	0	28.5616436
256551481685462	-0.069085069	-0.002303633839	0.01843439415	0.1273431927	-0.04629572853	-9.727584839	0	28.50706482
256551482190862	-0.06876016408	-0.001826928696	0.01807221025	0.1227926612	-0.04766089469	-9.735253334	0	28.47318649
256551482696252	-0.06876017153	-0.002298308304	0.01837580837	0.1280377209	-0.0515887402	-9.738436699	0	28.41576385
256551483201653	-0.06858970225	-0.002332929056	0.0182959158	0.1241338775	-0.05360053107	-9.732809067	0	28.3771801
256551483707033	-0.06886933744	-0.002796319313	0.01806155406	0.1255469322	-0.0507504642	-9.729001045	0	28.33106422
256551484212434	-0.06864832342	-0.002127865562	0.01824797317	0.1241338775	-0.04708608985	-9.736810684	0	28.29907227
256551484717821	-0.06890930235	-0.002037317958	0.01807487383	0.1232476905	-0.05300178006	-9.742318153	0	28.23506165
256551485223214	-0.06897854805	-0.001989381621	0.01805889048	0.1268641949	-0.04538562521	-9.72763443	0	28.19552803
256551485728603	-0.06887733936	-0.002396845026	0.01825063862	0.1266965419	-0.0495050624	-9.733935356	0	28.13248253
256551486233999	-0.06866428256	-0.003190466668	0.0182080362	0.1249721199	-0.05036725104	-9.736519814	0	28.08918953
256551486739371	-0.06896257401	-0.002561961068	0.01845037378	0.1283490956	-0.05199587718	-9.732040405	0	28.03647614
256551487244764	-0.06851248443	-0.002351571107	0.01858353801	0.1175475866	-0.05098997802	-9.722797394	0	28.01576614
256551487750189	-0.06900782138	-0.002338255523	0.01826661639	0.1258582622	-0.04900209233	-9.741454124	0	27.98565102
256551488255543	-0.06856308132	-0.002319613239	0.01822134666	0.130504638	-0.04802016169	-9.737550735	0	27.92919159
256551488760940	-0.06883474439	-0.002077265875	0.01810949855	0.1195114553	-0.04818778485	-9.726389885	0	27.90566254
256551489266319	-0.06870423257	-0.00279099308	0.01830922812	0.1221699715	-0.05333707854	-9.732307434	0	27.8557663
256551489771706	-0.06879477948	-0.00300404476	0.01829857752	0.1213317066	-0.05233117938	-9.733168602	0	27.81058884
256551490277131	-0.06876282394	-0.002889529336	0.01804823987	0.1269839555	-0.0511576198	-9.734171867	0	27.75790024
256551490782476	-0.06874417514	-0.002828277182	0.01788312197	0.1233435348	-0.04895420745	-9.733097076	0	27.71648407
256551491287857	-0.06828079373	-0.00281229848	0.01824265346	0.1217627749	-0.05637875944	-9.729312897	0	27.69577599
256551491793259	-0.06890395284	-0.002671150723	0.01791241951	0.1235111803	-0.04926555231	-9.73882103	0	27.64400673
256551492298619	-0.06870689988	-0.002692456124	0.01830923371	0.1258582622	-0.04813989624	-9.731850624	0	27.58848572
256551492804010	-0.06893859804	-0.002575277118	0.01806954667	0.1244691908	-0.04699028283	-9.7342453	0	27.5376606
256551493309391	-0.06849116832	-0.002583266236	0.01814943925	0.1228405535	-0.04464317858	-9.730296135	0	27.51695633
256551493814776	-0.06921822578	-0.002916161437	0.01787513494	0.1228644997	-0.04821173474	-9.737240791	0	27.48871422
256551494320185	-0.06843526661	-0.002972087823	0.01823466271	0.1261456609	-0.0480441004	-9.731804848	0	27.4378891
256551494825542	-0.06872554123	-0.002543318784	0.01805356704	0.1301932484	-0.04988826066	-9.732737541	0	27.423769
256551495330918	-0.06843525916	-0.002937466372	0.01798698679	0.1293071061	-0.0492415987	-9.729383469	0	27.3748455
256551495836294	-0.06877080351	-0.0025246765	0.01789111644	0.1319416165	-0.04952901602	-9.725576401	0	27.31930351
256551496341824	-0.06843259186	-0.002663161373	0.01825063862	0.1200144067	-0.05360053852	-9.731204033	0	27.2760067
256551496847055	-0.06883206218	-0.003438141895	0.01802427322	0.1267683804	-0.04936136305	-9.735730171	0	27.23554039
256551497352439	-0.06852048635	-0.002631203737	0.01795502938	0.1249002591	-0.0474213846	-9.737886429	0	27.21201706
256551497857817	-0.06877615303	-0.00245010783	0.01813878678	0.1213077605	-0.04643943161	-9.731181145	0	27.16590118
256551498363187	-0.0685550943	-0.003062634962	0.01815210469	0.1226489171	-0.05051097274	-9.736136436	0	27.12730789
256551498868564	-0.06910102814	-0.002913497854	0.01806422137	0.1219783649	-0.05285808444	-9.725861549	0	27.07836151
256551499373950	-0.06849384308	-0.002745719161	0.01804024912	0.118218191	-0.04852309078	-9.726434708	0	27.03319168
256551499879313	-0.0689785555	-0.002676477423	0.0180615522	0.1223854497	-0.04900210723	-9.728281975	0	27.00025558
256551500384703	-0.06883471459	-0.002777676797	0.01817873865	0.1228644922	-0.04825965315	-9.726079941	0	26.95978546
256551500890150	-0.06890132278	-0.002828277182	0.01806155592	0.1261935979	-0.04548142478	-9.734152794	0	26.92307281
256551501395443	-0.06851248443	-0.003731087316	0.01803759113	0.1275108457	-0.05831873417	-9.729047775	0	26.86376381
256551501900823	-0.06865096837	-0.003059972543	0.01767006889	0.1142903492	-0.04564907774	-9.72195816	0	26.8392868
256551502406190	-0.06831008196	-0.004050668329	0.01784850471	0.127870068	-0.04787643626	-9.725167274	0	26.78469658
256551502911563	-0.06879746169	-0.002998719225	0.01799231395	0.1270797253	-0.04902606085	-9.736879349	0	26.76116753
256551503416937	-0.06834737211	-0.003211771371	0.01788578369	0.129139483	-0.05077441409	-9.72708416	0	26.70282936
256551503922349	-0.06898118556	-0.003022687975	0.01793904416	0.1220741421	-0.05103786662	-9.731158257	0	26.65387535
256551504427681	-0.06865362823	-0.003075950779	0.01788046397	0.1268162727	-0.04682264104	-9.727155685	0	26.6275177
256551504933059	-0.06865099072	-0.003430151846	0.01796568185	0.1208526716	-0.05178031325	-9.734819412	0	26.57763863
256551505438430	-0.06819024682	-0.003467436414	0.01801628619	0.1239182949	-0.04952900484	-9.726102829	0	26.55410576
256551505943800	-0.06898388267	-0.003454119898	0.01809617877	0.1193677709	-0.0474213846	-9.7336483	0	26.5324688
256551506449161	-0.06856308877	-0.003296993906	0.01800297387	0.1204934269	-0.04318221658	-9.723514557	0	26.48823738
256551506954550	-0.06862966716	-0.003097257344	0.01779523678	0.1259061843	-0.05288204178	-9.736783981	0	26.43081284
256551507459932	-0.06861635298	-0.002902845619	0.01804557815	0.1195833161	-0.04857099429	-9.735443115	0	26.3752861
256551507965272	-0.06884272397	-0.00332628889	0.01837314479	0.1280616969	-0.04708608612	-9.731610298	0	26.32447052
256551508470648	-0.06825949252	-0.003326288657	0.01786448248	0.1263372749	-0.04809198156	-9.733838081	0	26.29906464
256551508976009	-0.06865630299	-0.0031744882	0.01790975407	0.125307411	-0.0436851643	-9.733239174	0	26.29341888
256551509481379	-0.06872019917	-0.003651194507	0.017619472	0.1229123846	-0.04574487731	-9.728185654	0	26.22657967
256551509986746	-0.06854976714	-0.003427488497	0.017931059	0.1259061843	-0.04876261577	-9.733119011	0	26.1917572
256551510492112	-0.06852048635	-0.003723099362	0.01778458618	0.1248284206	-0.04837938771	-9.726055145	0	26.15600014
256551510997467	-0.06849915534	-0.003595267422	0.01784051582	0.1265049428	-0.04794828966	-9.729310989	0	26.12212372
256551511502849	-0.06858971715	-0.004538026638	0.01766740717	0.1291873604	-0.04849914089	-9.735227585	0	26.07600021
256551512008199	-0.06874950975	-0.003672498744	0.01795503311	0.1214274988	-0.05410348251	-9.738172531	0	26.02235031
256551512513576	-0.06840596348	-0.003534013638	0.01780855842	0.1263851821	-0.05194797739	-9.729935646	0	25.99411583
256551513018934	-0.06868026406	-0.003358246293	0.0176780615	0.126385197	-0.04481082037	-9.727731705	0	25.9527092
256551513524296	-0.06878679246	-0.003802994732	0.01790442877	0.1236788034	-0.04394860938	-9.736138344	0	25.90283203
256551514029654	-0.0688720122	-0.004119911697	0.0175928399	0.1272473931	-0.04945716262	-9.735368729	0	25.87835693
256551514535019	-0.06868292391	-0.004319647327	0.01790709421	0.1213317066	-0.04208049178	-9.72320652	0	25.84353065
256551515040386	-0.0685710609	-0.003986752126	0.01810682938	0.1176194176	-0.05283413827	-9.732925415	0	25.8021183
256551515545745	-0.06851515919	-0.004138551652	0.01790708862	0.1194635928	-0.04569697753	-9.726582527	0	25.77483177
256551516051115	-0.06861901283	-0.004082625732	0.01767006889	0.1290915608	-0.0478524752	-9.726267815	0	25.71365166
256551516556460	-0.06854976714	-0.004071973264	0.01780056395	0.115966849	-0.04490661621	-9.732067108	0	25.67883873
256551517061829	-0.06867493689	-0.003637877526	0.01777393185	0.123463273	-0.04330195859	-9.7274189	0	25.65247345
256551517567180	-0.06869357079	-0.004210459068	0.01786447689	0.1217867509	-0.04636756703	-9.717672348	0	25.62141037
256551518072547	-0.06831806898	-0.003576625837	0.0176727362	0.1162542403	-0.04804409295	-9.723872185	0	25.56871605
256551518577904	-0.06853911281	-0.004042678513	0.01771534421	0.1238943338	-0.04296665266	-9.719730377	0	25.53954124
256551519083267	-0.0686083585	-0.004918858409	0.01808286458	0.1283730417	-0.04780457914	-9.724186897	0	25.50094986
256551519588614	-0.06850982457	-0.003619235009	0.0174383726	0.1242057234	-0.04996009544	-9.716596603	0	25.48777008
256551520093976	-0.06887467951	-0.004197141621	0.01787780039	0.1217388734	-0.04773275927	-9.732449532	0	25.46517754
256551520599330	-0.0685364455	-0.003970773891	0.01786981151	0.1203497574	-0.04895420372	-9.728714943	0	25.41718674
256551521104689	-0.06868293881	-0.004239752423	0.01762746274	0.1204934493	-0.04366120696	-9.720759392	0	25.37012863
256551521610076	-0.06856575608	-0.004087952431	0.01755821705	0.1238224655	-0.04629572853	-9.721262932	0	25.33248329
256551522115397	-0.06851246953	-0.003960120026	0.01773931272	0.1206850335	-0.03923042119	-9.725311279	0	25.28165436
256551522620756	-0.0681662783	-0.00418382464	0.01746234298	0.120996356	-0.04332589358	-9.724284172	0	25.27318573
256551523126103	-0.06854710728	-0.004266383126	0.0177978985	0.1197270453	-0.04825964198	-9.731154442	0	25.23271751
256551523631473	-0.06858438998	-0.004522047937	0.01782186516	0.1260498613	-0.0492176488	-9.734221458	0	25.18471909
256551524136816	-0.06854445487	-0.004548679572	0.01768071949	0.1192001104	-0.05221142992	-9.731730461	0	25.14237213
256551524642175	-0.06855776161	-0.003818973433	0.01792307384	0.1203497127	-0.04610412568	-9.729576111	0	25.08495331
256551525147522	-0.0683952868	-0.004372910596	0.01770469174	0.1222178638	-0.04694238678	-9.727637291	0	25.0604763
256551525652875	-0.06866693497	-0.004178498872	0.01771268249	0.1195593625	-0.05029540882	-9.722772598	0	25.0378933
256551526158224	-0.06852579862	-0.004170510452	0.01785649545	0.1176673397	-0.04629572853	-9.728955269	0	24.97955132
256551526663584	-0.06864827871	-0.004498079419	0.01789378189	0.117020674	-0.04658312723	-9.72519207	0	24.94848633
256551527168923	-0.06882939488	-0.004530036356	0.01780855097	0.1306961924	-0.03606899083	-9.727300644	0	24.91083908
256551527674289	-0.06864296645	-0.004250403959	0.01772866026	0.1144579649	-0.05180427432	-9.721886635	0	24.88260078
256551528179628	-0.06848052144	-0.004308994394	0.01765942015	0.1178349778	-0.05060676113	-9.727563858	0	24.84401703
256551528684972	-0.06848851591	-0.004079962615	0.01760082692	0.1180505157	-0.04495452344	-9.732952118	0	24.80731773
256551529190328	-0.06835003942	-0.004612594377	0.01772067323	0.1213077158	-0.0439007096	-9.724284172	0	24.80731201
256551529695673	-0.06899985671	-0.00434894301	0.01761148311	0.124038063	-0.04734955356	-9.719082832	0	24.76495552
256551530201025	-0.06824349612	-0.004721784964	0.01763279177	0.1223136485	-0.04550536349	-9.729764938	0	24.72448158
256551530706370	-0.06902647018	-0.003965446725	0.0174144078	0.1224094331	-0.04267924652	-9.726150513	0	24.67459297
256551531211724	-0.06820620596	-0.005052017048	0.01765942015	0.121355623	-0.04277505726	-9.720930099	0	24.63318825
256551531717059	-0.06861367822	-0.004231763538	0.0176674109	0.1209245399	-0.04780459777	-9.718989372	0	24.628479
256551532222415	-0.06823553145	-0.004314320162	0.01734516956	0.1158949807	-0.04596043378	-9.729813576	0	24.58989525
256551532727751	-0.06867495179	-0.004665857647	0.01735581644	0.1241099313	-0.04588858411	-9.719468117	0	24.56447792
256551533233104	-0.06805974245	-0.004942827858	0.0176434461	0.1244931296	-0.03877535835	-9.724711418	0	24.52776909
256551533738450	-0.06880810112	-0.004625910893	0.01727326028	0.1275108308	-0.04689448327	-9.72653389	0	24.45624733
256551534243797	-0.06862699986	-0.004713795148	0.01774463989	0.1196312308	-0.05039121956	-9.723252296	0	24.41671944
256551534749126	-0.0685018301	-0.004519383889	0.01769403927	0.1216190979	-0.04176913202	-9.718701363	0	24.39130783
256551535254477	-0.06848052144	-0.004442153033	0.01762479544	0.1204694882	-0.05110971257	-9.732449532	0	24.36306953
256551535759797	-0.06869892031	-0.004918857478	0.01763811335	0.1170924902	-0.04991219565	-9.735203743	0	24.33576965
256551536265161	-0.06817694008	-0.004716457799	0.01765942015	0.1181223541	-0.0460562259	-9.729599953	0	24.2567215
256551536770511	-0.06886135787	-0.004431499634	0.01751294173	0.1185294986	-0.04382885247	-9.728760719	0	24.20590019
256551537275845	-0.06813166291	-0.004231762607	0.0172492899	0.1172601506	-0.04746928439	-9.722415924	0	24.18425369
256551537781191	-0.06898920238	-0.004881574307	0.01775262505	0.1187450588	-0.04466712475	-9.71870327	0	24.14095497
256551538286525	-0.06829410046	-0.005193163641	0.01768605039	0.1157512665	-0.04545746744	-9.719011307	0	24.12871742
256551538791884	-0.06876282394	-0.004213120323	0.01769670658	0.121355623	-0.04572091624	-9.723059654	0	24.08730888
256551539297203	-0.06827548146	-0.005555354059	0.01757686399	0.1212358922	-0.04672684148	-9.720643044	0	24.06189919
256551539802563	-0.06881608814	-0.004894889891	0.01794437692	0.1196312234	-0.04567301646	-9.718053818	0	24.02707481
256551540307889	-0.06840328127	-0.00506533077	0.0175715331	0.1222178414	-0.04399650544	-9.722917557	0	24.00260544
256551540813233	-0.06859501451	-0.004660530947	0.01750761457	0.1249721497	-0.04986431077	-9.723252296	0	23.9517765
256551541318608	-0.0685018599	-0.005086638965	0.01738244668	0.1199665219	-0.03968546912	-9.732016563	0	23.93577957
256551541823904	-0.06871754676	-0.005187837873	0.01763278618	0.1214274839	-0.04339775816	-9.723083496	0	23.907547
256551542329235	-0.06822487712	-0.005238438956	0.01707884856	0.1206850186	-0.04502638057	-9.723970413	0	23.88684273
256551542834588	-0.06888532639	-0.004665859509	0.01759017818	0.1241578162	-0.04725374281	-9.725431442	0	23.8350811
256551543339945	-0.06845922768	-0.005534049124	0.01745968312	0.1172362119	-0.04711003602	-9.720521927	0	23.80778313
256551543845253	-0.06884005666	-0.005760416389	0.01729723252	0.1206850186	-0.04009262472	-9.716809273	0	23.7682476
256551544350592	-0.06828878075	-0.005286374129	0.01718271337	0.1221699342	-0.04131409526	-9.719517708	0	23.72496033
256551544855920	-0.06864564121	-0.004564657807	0.0176461041	0.1195833459	-0.04399650171	-9.718676567	0	23.68730927
256551545361260	-0.06803578883	-0.005534048658	0.01751560904	0.1165416762	-0.04732558504	-9.720859528	0	23.66849136
256551545866595	-0.06868026406	-0.005323657766	0.01729723066	0.1202299818	-0.04337379336	-9.733241081	0	23.62143326
256551546371931	-0.06843525916	-0.005126585253	0.01734782383	0.1180026159	-0.04512218386	-9.715538979	0	23.58284378
256551546877257	-0.06845390052	-0.004527373239	0.01739577204	0.1248044595	-0.04996010661	-9.716356277	0	23.55649185
256551547382595	-0.06847254932	-0.004900215659	0.01750229113	0.1226010546	-0.04591253027	-9.713888168	0	23.52731133
256551547887919	-0.06853379309	-0.005816342775	0.01745168865	0.1215472296	-0.04409230128	-9.729862213	0	23.49437332
256551548393264	-0.06823284924	-0.005355616566	0.01755288988	0.1204694733	-0.0451461263	-9.714173317	0	23.45484924
256551548898597	-0.06846188754	-0.005030711647	0.01770202629	0.1230081916	-0.05087021738	-9.713289261	0	23.42378616
256551549403925	-0.06831808388	-0.005142563023	0.01748364978	0.1181223765	-0.05084626377	-9.713913918	0	23.38707924
256551549909256	-0.0683234036	-0.005073322449	0.01754490286	0.1187450364	-0.04473896697	-9.717765808	0	23.35413551
256551550414590	-0.06834470481	-0.005677859765	0.01748897694	0.1227926835	-0.04172125086	-9.72363472	0	23.31179047
256551550919939	-0.06826747954	-0.005672535393	0.01754756458	0.1128772721	-0.04459526017	-9.718726158	0	23.2694416
256551551425240	-0.06877880543	-0.005225121975	0.01728391275	0.1140987575	-0.04581673071	-9.719590187	0	23.23367691
256551551930592	-0.06832338125	-0.005611280445	0.01719602384	0.1202778667	-0.04320615157	-9.730726242	0	23.21390533
256551552435905	-0.06882141531	-0.005472796038	0.01711346768	0.119750984	-0.04346960038	-9.712691307	0	23.17343521
256551552941242	-0.06843259186	-0.005012067966	0.01716673374	0.1247565448	-0.04763695225	-9.713193893	0	23.14143562
256551553446550	-0.06855241954	-0.005491438787	0.01743305102	0.1142903194	-0.05036725849	-9.710534096	0	23.12449646
256551553951896	-0.06849651039	-0.006165219005	0.01723597758	0.1183618531	-0.0380808115	-9.71908474	0	23.07556152
256551554457220	-0.06881606579	-0.005118596833	0.01758218557	0.1165416762	-0.0445234254	-9.718512535	0	23.03508759
256551554962550	-0.06824617833	-0.005669870414	0.01719336398	0.1159429252	-0.04893024266	-9.721741676	0	23.0106144
256551555467873	-0.0686616227	-0.005214470439	0.01731054299	0.123798579	-0.04447551072	-9.7271595	0	22.9899044
256551555973202	-0.06822218746	-0.005973470863	0.01722798869	0.1158949956	-0.0454095602	-9.720162392	0	22.95602798
256551556478528	-0.06879744679	-0.005049353	0.01744103804	0.1160626411	-0.04543351009	-9.724067688	0	22.90803146
256551556983857	-0.06824350357	-0.005539376754	0.01731853373	0.1163261011	-0.04028423131	-9.713816643	0	22.86472893
256551557489177	-0.06875217706	-0.00536627043	0.01724396273	0.1208766401	-0.0477806516	-9.71257019	0	22.83553505
256551557994517	-0.06822218001	-0.005595300812	0.01771001704	0.1187450662	-0.04112248868	-9.710607529	0	22.80822754
256551558499832	-0.06856575608	-0.005307679065	0.01740375347	0.1232716441	-0.04746928439	-9.721455574	0	22.7781086
256551559005146	-0.06838464737	-0.005997438915	0.01751827076	0.1191761866	-0.04406835884	-9.722773552	0	22.7329464
256551559510485	-0.06850450486	-0.005699164234	0.01717205904	0.1162063554	-0.04996010289	-9.717936516	0	22.68684387
256551560015799	-0.06815560907	-0.00554203894	0.01733984239	0.1159907728	-0.0459843725	-9.711707115	0	22.66706848
256551560521144	-0.06843791902	-0.005946840625	0.01730255596	0.1156315506	-0.04229605943	-9.722723961	0	22.63128662
256551561026450	-0.06834737211	-0.005515405908	0.01753159054	0.1195593774	-0.03875141963	-9.704715729	0	22.60210419
256551561531771	-0.06872022152	-0.005464808084	0.01748098992	0.1152483225	-0.0462478213	-9.710125923	0	22.56539154
256551562037091	-0.06847520918	-0.005640575197	0.01736647263	0.1195593998	-0.04102668539	-9.71549511	0	22.55033493
256551562542422	-0.0684139505	-0.005225121044	0.01720934547	0.1169966981	-0.04907394946	-9.714608192	0	22.50045395
256551563047729	-0.06839795411	-0.006173206493	0.01724129915	0.1171164662	-0.04112248868	-9.719061852	0	22.48351097
256551563553058	-0.06851514429	-0.005459480919	0.0176514294	0.1207808778	-0.04282294959	-9.727517128	0	22.42515564
256551564058380	-0.06849382818	-0.005731122568	0.01699895598	0.1188169271	-0.04121828079	-9.710151672	0	22.38186264
256551564563704	-0.06833139807	-0.005318331998	0.01719336398	0.116541639	-0.0384161137	-9.726700783	0	22.36209869
256551565069014	-0.06844057143	-0.005816343706	0.01707085967	0.1147214696	-0.045074258	-9.708143234	0	22.33010483
256551565574322	-0.06838731468	-0.005954826716	0.01751827262	0.1164698005	-0.04083507881	-9.709001541	0	22.29433823
256551566079653	-0.06852844357	-0.006199839059	0.01712412573	0.1208526865	-0.04167334363	-9.717695236	0	22.25292206
256551566584973	-0.06810502708	-0.005739112385	0.01728125103	0.1192719787	-0.042511601	-9.715109825	0	22.20774841
256551567090299	-0.06838200241	-0.005518069956	0.01719336398	0.1152722985	-0.04124223441	-9.719779968	0	22.18515778
256551567595606	-0.0681289807	-0.006471481174	0.01714276709	0.1239183322	-0.04351751134	-9.717862129	0	22.16163063
256551568100928	-0.06898651272	-0.005821671803	0.01724129915	0.1156794354	-0.04164939001	-9.718462944	0	22.15504456
256551568606234	-0.06797985733	-0.006159889977	0.01701226458	0.1198467836	-0.03772155568	-9.711975098	0	22.12116432
256551569111559	-0.068714872	-0.005877594929	0.0172652714	0.1169248745	-0.04150568694	-9.716666222	0	22.0806942
256551569616872	-0.06826747209	-0.006588659249	0.01691905968	0.116397962	-0.03896697611	-9.716069221	0	22.03457069
256551570122195	-0.06847784668	-0.005534048658	0.01692971028	0.1240620092	-0.04447551072	-9.710438728	0	21.98939705
256551570627501	-0.06807839125	-0.005744438618	0.01711080223	0.1156794429	-0.04852308705	-9.712690353	0	21.97998619
256551571132820	-0.06859505177	-0.006090649869	0.01751827076	0.1198707074	-0.03935017437	-9.706008911	0	21.95363617
256551571638129	-0.06810237467	-0.005872269627	0.01728390716	0.1097637638	-0.04624783993	-9.724664688	0	21.90657806
256551572143449	-0.06865365058	-0.006109292153	0.01725728065	0.1153202206	-0.04519401118	-9.719370842	0	21.85763168
256551572648736	-0.06804110855	-0.006458163727	0.01770202816	0.1182181835	-0.04083508253	-9.711181641	0	21.85104561
256551573154078	-0.06862699986	-0.006340985652	0.01743837632	0.1167811528	-0.04560117051	-9.714055061	0	21.81528091
256551573659382	-0.06809968501	-0.006644586101	0.01752359793	0.1153681055	-0.04351750761	-9.70267868	0	21.79081345
256551574164700	-0.0685710758	-0.006194511428	0.01715874299	0.1130688637	-0.04299060628	-9.710583687	0	21.77104759
256551574670046	-0.06804909557	-0.006724482402	0.01734249853	0.117332004	-0.04806804657	-9.713552475	0	21.7174015
256551575175320	-0.06849118322	-0.006295714062	0.01714543253	0.1158471182	-0.04560117796	-9.724546432	0	21.66845703
256551575680634	-0.06801181287	-0.006519417744	0.01703890227	0.1139071435	-0.04346960038	-9.71989727	0	21.62704277
256551576185947	-0.06839266419	-0.00595749123	0.01710281335	0.1189845353	-0.03599714115	-9.720332146	0	21.60539818
256551576691257	-0.06822749972	-0.006245112512	0.01708950475	0.1152244061	-0.04629572853	-9.708572388	0	21.57622337
256551577196556	-0.06799050421	-0.006548712496	0.01700161584	0.1216669902	-0.0410027355	-9.704786301	0	21.56304741
256551577701881	-0.06831807643	-0.006258428562	0.01722531952	0.1134999841	-0.043972563	-9.708834648	0	21.51599121
256551578207183	-0.06861104071	-0.00676709041	0.01734782755	0.1191522107	-0.0534568429	-9.716976166	0	21.47834015
256551578712502	-0.06844857335	-0.006492789369	0.0170868393	0.1181942374	-0.04370909929	-9.717478752	0	21.4294014
256551579217802	-0.06815828383	-0.00663659675	0.01684182324	0.1131168082	-0.04658313096	-9.705121994	0	21.39458084
256551579723107	-0.06847253442	-0.006668554619	0.01704955101	0.1179307625	-0.04564907402	-9.716644287	0	21.37104988
256551580228415	-0.06815297157	-0.00614657579	0.01727325656	0.1163021326	-0.03891908005	-9.709218025	0	21.34375572
256551580733730	-0.06844323128	-0.006415554322	0.01727858558	0.1168050915	-0.0424397476	-9.714871407	0	21.32681465
256551581239023	-0.0678839758	-0.006554038264	0.01728923805	0.1151764616	-0.0397573337	-9.714700699	0	21.29104996
256551581744349	-0.06841927767	-0.0064395261	0.01707618311	0.1210442781	-0.03582949936	-9.719660759	0	21.27787399
256551582249639	-0.06812633574	-0.006841661874	0.01727059484	0.115104638	-0.04703817144	-9.707303047	0	21.2345829
256551582754948	-0.06827811897	-0.005834984593	0.01725994237	0.112350367	-0.04461921751	-9.711733818	0	21.19975853
256551583260272	-0.06792125851	-0.006354301237	0.01719602942	0.118625313	-0.04751718789	-9.710006714	0	21.17246246
256551583765546	-0.06874419749	-0.006687196903	0.01735848002	0.1143142805	-0.04572091624	-9.711277008	0	21.15175819
256551584270845	-0.06812631339	-0.006815028843	0.01731587201	0.1193198934	-0.04241580516	-9.709192276	0	21.09999275
256551584776134	-0.06853911281	-0.006426207721	0.01729989424	0.1231039762	-0.04107459635	-9.707348824	0	21.06611061
256551585281478	-0.06811035424	-0.006756440271	0.01723597571	0.1160147339	-0.0454095751	-9.701335907	0	21.03223228
256551585786765	-0.06841927767	-0.00663926173	0.01735315472	0.1170206517	-0.04488267377	-9.707971573	0	20.99835014
256551586292081	-0.06797451526	-0.006719155703	0.01730788685	0.1116797403	-0.03863167018	-9.711754799	0	20.96540833
256551586797397	-0.06832074374	-0.006479469594	0.01714276522	0.1157033816	-0.04255949333	-9.701865196	0	20.92775917
256551587302687	-0.06821420789	-0.00679904921	0.01693769917	0.1136676446	-0.03824846447	-9.709263802	0	20.8854084
256551587807984	-0.06851515919	-0.006932207383	0.01705487818	0.1157752573	-0.04445156083	-9.713049889	0	20.86658478
256551588313292	-0.0681822598	-0.006538060028	0.01705487818	0.1089254841	-0.04548142478	-9.709982872	0	20.83364105
256551588818582	-0.06839264184	-0.007049388252	0.01710814238	0.1188169196	-0.03891906515	-9.712546349	0	20.79316139
256551589323887	-0.06849116832	-0.006255765911	0.01671133377	0.1175715029	-0.03836820647	-9.702248573	0	20.77245522
256551589829174	-0.0682168752	-0.006596651394	0.0170335751	0.1148890853	-0.04078717157	-9.713984489	0	20.7432766
256551590334474	-0.06849918514	-0.006554040127	0.01690042019	0.1125179902	-0.04792433977	-9.707492828	0	20.71692467
256551590839794	-0.06808636338	-0.006990798749	0.01688443869	0.1165895835	-0.04476291686	-9.710223198	0	20.69715881
256551591345092	-0.06856041402	-0.00620782841	0.01696167327	0.1169488207	-0.04727768153	-9.701169968	0	20.66610146
256551591850388	-0.06801979989	-0.007163902279	0.01718537696	0.1134041846	-0.04105063528	-9.709313393	0	20.6642189
256551592355682	-0.06838198751	-0.006282398012	0.01710281335	0.1146016866	-0.04682263732	-9.701291084	0	20.6209259
256551592860992	-0.0678626895	-0.006924217567	0.01711080596	0.113978982	-0.04105064273	-9.695422173	0	20.58986664
256551593366275	-0.06837664545	-0.007225156296	0.01715341955	0.1204934344	-0.03733835742	-9.706032753	0	20.54751396
256551593871582	-0.06803311408	-0.006841661874	0.01710547879	0.1085422784	-0.04435576871	-9.701601028	0	20.51833725
256551594376869	-0.06838998199	-0.006996124983	0.01684981957	0.1163500547	-0.03975732252	-9.710632324	0	20.47598457
256551594882175	-0.06838198751	-0.006857638247	0.01683116704	0.1117755473	-0.03616480902	-9.708591461	0	20.43927956
256551595387472	-0.06800649315	-0.007028082851	0.01725461893	0.1149369627	-0.03669169918	-9.712380409	0	20.41010284
256551595892771	-0.06796652824	-0.006918893196	0.01712146029	0.1182421297	-0.04739744216	-9.71697998	0	20.37151527
256551596398056	-0.06832873821	-0.007153249811	0.01704955101	0.1157034114	-0.04236790165	-9.707061768	0	20.32163429
256551596903362	-0.06830741465	-0.007017429452	0.01731587201	0.1160147563	-0.044595249	-9.715157509	0	20.29904747
256551597408648	-0.06780409068	-0.006940195803	0.01721200719	0.1124700904	-0.03949386999	-9.700716019	0	20.2604599
256551597913928	-0.06834470481	-0.007781757507	0.0171427615	0.1136436835	-0.03805686533	-9.705169678	0	20.24069405
256551598419236	-0.06839796901	-0.007105312776	0.01714542881	0.1127335653	-0.03582949564	-9.712667465	0	20.23693085
256551598924534	-0.06853111833	-0.00726244133	0.01690840721	0.114266403	-0.04617597535	-9.710464478	0	20.19834137
256551599429784	-0.06792128086	-0.006575345993	0.01672198437	0.1139789745	-0.04117039219	-9.705191612	0	20.15693092
256551599935090	-0.06834737211	-0.006631270982	0.01707352325	0.1183139682	-0.03800896928	-9.701291084	0	20.13339996
256551600440423	-0.0678307116	-0.006900251377	0.01681253314	0.1099074408	-0.04021238163	-9.700883865	0	20.076931
256551600945704	-0.06822752953	-0.007012103219	0.01692172512	0.1171882972	-0.04236789793	-9.709025383	0	20.03834534
256551601451000	-0.06776946038	-0.007302388549	0.01686845534	0.1108654588	-0.04394861683	-9.69980526	0	20.00163841
256551601956283	-0.06832873076	-0.006996124983	0.01679388992	0.1185055524	-0.04160149023	-9.695371628	0	19.97057915
256551602461585	-0.06790794432	-0.0070307469	0.01686845906	0.1164697707	-0.03834425658	-9.702320099	0	19.94987488
256551602966885	-0.06824883074	-0.007363640703	0.01690041833	0.11414662	-0.04318220913	-9.698081017	0	19.93293381
256551603472173	-0.06802779436	-0.007992147468	0.01691107266	0.1089734063	-0.04073929042	-9.689027786	0	19.92822838
256551603977448	-0.06863234192	-0.006439523771	0.01673795842	0.1174996272	-0.04409231246	-9.706727982	0	19.87364006
256551604482745	-0.06817691773	-0.007616639137	0.01676193252	0.119583331	-0.04289480671	-9.698029518	0	19.85481644
256551604988030	-0.06833403558	-0.007081345189	0.01717471704	0.1139310747	-0.04114643857	-9.692334175	0	19.81434631
256551605493319	-0.06815827638	-0.007126620039	0.01680720598	0.1151285917	-0.03582949564	-9.70330143	0	19.78328705
256551605998623	-0.06816360354	-0.006372945383	0.0169803109	0.1087817922	-0.04344564676	-9.699063301	0	19.73716927
256551606503899	-0.06807573885	-0.007392933592	0.01664475724	0.1137155294	-0.04021237418	-9.69740963	0	19.71928787
256551607009176	-0.06778542697	-0.006783070508	0.01693237759	0.1142663807	-0.039110668	-9.705121994	0	19.6882267
256551607514474	-0.06831540912	-0.007246462628	0.01712146215	0.1119911075	-0.03726651147	-9.698679924	0	19.66469765
256551608019768	-0.06805709004	-0.007496798877	0.01686047018	0.1129730865	-0.04200864583	-9.70495224	0	19.6232872
256551608525049	-0.06836333871	-0.00715857558	0.016932372	0.1170446053	-0.0416014865	-9.700642586	0	19.56305313
256551609030354	-0.06803845614	-0.007858988829	0.01700694486	0.1134999841	-0.04476292059	-9.695543289	0	19.55081749
256551609535624	-0.06831008941	-0.007195862476	0.01678057574	0.1197749525	-0.04085903987	-9.693531036	0	19.5112896
256551610040915	-0.06812633574	-0.007558051962	0.01695368066	0.1137394607	-0.04073928669	-9.697769165	0	19.47834778
256551610546183	-0.06831540167	-0.007653926499	0.01704422757	0.1120629758	-0.03736230358	-9.694106102	0	19.46140671
256551611051476	-0.06800647825	-0.006942860316	0.01704156399	0.1117995083	-0.04088298231	-9.699664116	0	19.42564392
256551611556789	-0.06834470481	-0.006921555847	0.01695900597	0.1119911149	-0.03561394289	-9.700546265	0	19.37858582
256551612062049	-0.06809171289	-0.007456850726	0.01712678559	0.1103864536	-0.04117038101	-9.704572678	0	19.34470367
256551612567319	-0.06810235977	-0.007310376503	0.01705754176	0.1170445904	-0.03633245081	-9.696857452	0	19.3098793
256551613072614	-0.0682008788	-0.007829694077	0.01671133004	0.1161823943	-0.03980522975	-9.704403877	0	19.28258705
256551613577891	-0.06789197773	-0.007691210136	0.01691106707	0.1119911075	-0.03714675084	-9.692044258	0	19.27223206
256551614083177	-0.0684139505	-0.007398258895	0.01699096337	0.1143861562	-0.03882326931	-9.697481155	0	19.25341034
256551614588467	-0.06771086156	-0.007725830656	0.01674328931	0.1133083776	-0.04387677088	-9.69113636	0	19.22517395
256551615093744	-0.06830208749	-0.007893607952	0.01719336398	0.1128772795	-0.04270318896	-9.695804596	0	19.21199799
256551615599021	-0.06804377586	-0.00736630382	0.01686579548	0.115344137	-0.04239184409	-9.694464684	0	19.19505692
256551616104311	-0.06831275672	-0.006681871135	0.0166793745	0.1141466275	-0.04452342913	-9.700573921	0	19.16399956
256551616609582	-0.06794255227	-0.008050737903	0.01680188254	0.1185294911	-0.04397255927	-9.69724369	0	19.11599922
256551617114860	-0.06835801899	-0.007179882377	0.01694835536	0.1142185405	-0.03853586689	-9.699420929	0	19.08870697
256551617620177	-0.06809969991	-0.007872303948	0.0169696603	0.118529506	-0.04617597908	-9.699231148	0	19.05105972
256551618125426	-0.06844057143	-0.00803475827	0.01696166955	0.1133802012	-0.04018842429	-9.688024521	0	19.03976631
256551618630705	-0.06806506217	-0.007582018152	0.01709483191	0.116996713	-0.03638033941	-9.69879818	0	19.00117874
256551619135981	-0.06826213747	-0.007848336361	0.01713211462	0.1150567532	-0.03906277195	-9.699851036	0	18.97388458
256551619641269	-0.06839799136	-0.007835021242	0.01683117636	0.1133083776	-0.03623664379	-9.699206352	0	18.9456501
256551620146530	-0.06806774437	-0.008072042838	0.01683649793	0.1127814874	-0.03645219654	-9.692690849	0	18.92964935
256551620651824	-0.06822752953	-0.007725830656	0.0169004146	0.1138592288	-0.04133804888	-9.695590019	0	18.90706253
256551621157104	-0.0679532066	-0.008138620295	0.01703090779	0.1121827066	-0.04061952978	-9.697313309	0	18.8769455
256551621662374	-0.06836335361	-0.007534082513	0.0168364998	0.1119911	-0.03935018554	-9.69446373	0	18.84682655
256551622167666	-0.06792126596	-0.007584681269	0.01701493189	0.1086620614	-0.04449945688	-9.691037178	0	18.84306335
256551622672932	-0.06824085116	-0.007518102881	0.01695101894	0.1072489545	-0.03978126869	-9.684858322	0	18.80823898
256551623178204	-0.06809169799	-0.007576691918	0.01692438312	0.115176484	-0.04711003602	-9.694893837	0	18.76588631
256551623683486	-0.06790526956	-0.007390272338	0.01680720411	0.1133083925	-0.0394699201	-9.688334465	0	18.7188282
256551624188763	-0.06798518449	-0.008266451769	0.01719069853	0.113116771	-0.03997287527	-9.686179161	0	18.69247627
256551624694039	-0.0681476444	-0.007890946232	0.01705488563	0.1149609312	-0.0411224775	-9.692474365	0	18.66800499
256551625199310	-0.06838200241	-0.007571368013	0.01697764359	0.1185774207	-0.03855981678	-9.691850662	0	18.65859413
256551625704591	-0.06811567396	-0.007978830487	0.01679388806	0.1175475791	-0.03796105459	-9.700498581	0	18.63412285
256551626209892	-0.06838731468	-0.008119976148	0.01677258499	0.1201820746	-0.03875141963	-9.688980103	0	18.59365273
256551626715130	-0.0678307116	-0.008197210729	0.0170282498	0.1145537943	-0.04066743329	-9.692284584	0	18.55035973
256551627220423	-0.06825947016	-0.007888284512	0.01694303192	0.1130688861	-0.0442360118	-9.698870659	0	18.51553535
256551627725685	-0.06818491966	-0.008309063502	0.01684449241	0.1181702763	-0.0378892161	-9.685148239	0	18.50235939
256551628230964	-0.06856575608	-0.008085358888	0.01682318747	0.1140747964	-0.0387753658	-9.696810722	0	18.48165321
256551628736239	-0.06797452271	-0.008570053615	0.01677791029	0.1150567159	-0.03561393172	-9.688572884	0	18.45718384
256551629241509	-0.06819290668	-0.008072040044	0.01693770103	0.1094044819	-0.04332590848	-9.696213722	0	18.40447807
256551629746777	-0.06829411536	-0.008370315656	0.01666872576	0.1146974713	-0.03939807415	-9.696068764	0	18.37624359
256551630252052	-0.06798516959	-0.008197208866	0.0168524757	0.1133083627	-0.04093089327	-9.687685966	0	18.35271454
256551630757310	-0.0678306967	-0.007821704261	0.01681519859	0.1159907728	-0.04495453089	-9.688117027	0	18.32824516
256551631262588	-0.06784136593	-0.00802410394	0.01682585105	0.1162542626	-0.0409308821	-9.684931755	0	18.31224442
256551631767857	-0.06829411536	-0.00768854795	0.01667404547	0.113020964	-0.03970941529	-9.674873352	0	18.27836227
256551632273131	-0.06801713258	-0.007672566455	0.01684448868	0.1216430664	-0.03879931197	-9.682108879	0	18.25954056
256551632778405	-0.06877879798	-0.007731157355	0.01680187695	0.1066262573	-0.03980523348	-9.695065498	0	18.22095299
256551633283680	-0.06790261716	-0.008783105761	0.01662877575	0.1144100726	-0.04059556872	-9.6861763	0	18.17954063
256551633788934	-0.06849650294	-0.007816377096	0.01683383621	0.1156794354	-0.04414020479	-9.685648918	0	18.13718796
256551634294218	-0.06792925298	-0.008359662257	0.01725462079	0.1134520918	-0.04687054455	-9.691782951	0	18.10330582
256551634799495	-0.06815295666	-0.008415588178	0.01699096337	0.1135957986	-0.0346798785	-9.68488121	0	18.09954071
256551635304747	-0.06816361099	-0.007901599631	0.01679655351	0.1103864238	-0.03963757306	-9.677869797	0	18.07130623
256551635810053	-0.0680251196	-0.008378305472	0.01694834977	0.1129251719	-0.045074258	-9.689099312	0	18.04024696
256551636315284	-0.06823286414	-0.008567389101	0.01691639237	0.1170206219	-0.03676354513	-9.690534592	0	18.01389503
256551636820542	-0.06780141592	-0.008687233552	0.01675127819	0.1116797775	-0.04802013934	-9.694560051	0	17.97436714
256551637325817	-0.06838731468	-0.00819987338	0.01703091338	0.1137395129	-0.03542233631	-9.687519073	0	17.96965981
256551637831095	-0.06781205535	-0.008327704854	0.01690041833	0.1121347994	-0.04014053196	-9.68718338	0	17.93107224
256551638336352	-0.06814233214	-0.008111988194	0.01671932265	0.1074645147	-0.03834426031	-9.683782578	0	17.89624977
256551638841631	-0.06803045422	-0.007962852716	0.01700427942	0.1117516309	-0.04172124341	-9.691181183	0	17.87460327
256551639346893	-0.06838731468	-0.007874965668	0.01692438684	0.114050813	-0.04136198387	-9.685796738	0	17.83319283
256551639852158	-0.06827546656	-0.007920240983	0.01667937264	0.1154399142	-0.03999684006	-9.689049721	0	17.8143692
256551640357411	-0.06809435785	-0.008458198979	0.01680187695	0.113140732	-0.03549419343	-9.685935974	0	17.77766418
256551640862699	-0.06824617088	-0.007824366912	0.01687911339	0.1133084148	-0.04038002715	-9.692450523	0	17.75413513
256551641367940	-0.06806773692	-0.008024104871	0.01713743806	0.1158710867	-0.04282294586	-9.680332184	0	17.73719406
256551641873220	-0.06819288433	-0.007968178019	0.0166420918	0.1170925424	-0.04145778716	-9.676908493	0	17.71272278
256551642378481	-0.06781474501	-0.008146611042	0.01678856276	0.1097398177	-0.04119433835	-9.684310913	0	17.68448639
256551642883745	-0.06865364313	-0.008399607614	0.01645567082	0.1143861488	-0.03549418971	-9.688572884	0	17.65907669
256551643388999	-0.0676336512	-0.008617989719	0.01678323746	0.1129012555	-0.03999682516	-9.664598465	0	17.62895966
256551643894269	-0.06866694987	-0.008082694374	0.01675127633	0.1110810041	-0.0432779938	-9.682010651	0	17.61389732
256551644399518	-0.06775082648	-0.008617988788	0.01663143747	0.1155836582	-0.03374582157	-9.680740356	0	17.569664
256551644907586	-0.06815031916	-0.008229166269	0.0165275801	0.1128772721	-0.04576883093	-9.677889824	0	17.56495667
256551645410088	-0.06796122342	-0.00809068419	0.01660747081	0.1151285395	-0.04315826297	-9.68667984	0	17.53860474
256551645915289	-0.06827811897	-0.007930894382	0.01664475165	0.1207808256	-0.03887117654	-9.694272995	0	17.50942802
256551646420561	-0.06783604622	-0.007496798411	0.01677791029	0.1054287776	-0.04469105601	-9.686634064	0	17.45389938
256551646925833	-0.06784937531	-0.008836368099	0.01684715413	0.1045905203	-0.04186493903	-9.673411369	0	17.42660522
256551647431096	-0.06838198006	-0.008287756704	0.0167645961	0.1124461517	-0.03889511898	-9.688691139	0	17.41719437
256551647936336	-0.0676176697	-0.008114650846	0.01639708318	0.1139790043	-0.04064347968	-9.672506332	0	17.39366531
256551648441615	-0.06857640296	-0.008149271831	0.01707885601	0.1153920367	-0.03829636425	-9.686032295	0	17.36637115
256551648946875	-0.06797450781	-0.008844357915	0.01683916338	0.1166613996	-0.03990101814	-9.683351517	0	17.32778358
256551649452115	-0.06824618578	-0.008215853013	0.01688443683	0.1085901633	-0.03882326931	-9.677985191	0	17.32025337
256551649957389	-0.06798517704	-0.008721851744	0.01662344858	0.1106978208	-0.03630850092	-9.680001259	0	17.29296112
256551650462654	-0.06795055419	-0.008527441882	0.01690308005	0.1123024449	-0.03666775301	-9.681507111	0	17.2562542
256551650967893	-0.06820356101	-0.008484830149	0.01689775102	0.1153201759	-0.03796106204	-9.676215172	0	17.22707748
256551651473172	-0.06823286414	-0.009201221168	0.01676193066	0.1062670052	-0.04239184409	-9.682800293	0	17.19037247
256551651978426	-0.06829409301	-0.008857671171	0.0169962924	0.1113444492	-0.04442761838	-9.688307762	0	17.1771965
256551652483671	-0.0675297603	-0.00829574652	0.01710015349	0.1136436835	-0.03300336003	-9.683254242	0	17.14519691
256551652988941	-0.06839797646	-0.007960188203	0.01687644236	0.1108415127	-0.03958967328	-9.677268982	0	17.14613724
256551653494204	-0.06796121597	-0.008586030453	0.016620785	0.1105062142	-0.0428469032	-9.679327965	0	17.12072563
256551653999425	-0.0683420226	-0.008135954849	0.01669801958	0.1116558164	-0.03724255413	-9.681556702	0	17.09625626
256551654504719	-0.06751911342	-0.008948220871	0.0165408887	0.1076800823	-0.0450024195	-9.681551933	0	17.0510807
256551655009989	-0.068041116	-0.008708535694	0.0167060066	0.1106020063	-0.0396854803	-9.675424576	0	17.02660942
256551655515228	-0.06806772947	-0.008325043134	0.01671932265	0.11194323	-0.04026028141	-9.678059578	0	16.9899044
256551656020495	-0.06820087135	-0.008359662257	0.01629321463	0.1136915758	-0.03575763851	-9.676695824	0	16.96919823
256551656525735	-0.06815560907	-0.008761799894	0.01628788374	0.1076561213	-0.04059558362	-9.676381111	0	16.95319748
256551657031018	-0.0677588284	-0.008436894044	0.0166740492	0.1091889441	-0.04131409153	-9.6765728	0	16.91272736
256551657536247	-0.06797984242	-0.008410261944	0.01668203808	0.1159429327	-0.04057163	-9.668382645	0	16.88355255
256551658041504	-0.06742858142	-0.009390303865	0.01669534855	0.1117994934	-0.04071532935	-9.681147575	0	16.83931732
256551658546757	-0.06844857335	-0.008226505481	0.0165781714	0.1139789522	-0.04105063528	-9.674920082	0	16.79978943
256551659052016	-0.06784402579	-0.009262474254	0.01659681462	0.1076082215	-0.03578158841	-9.679543495	0	16.78096581
256551659557258	-0.06820623577	-0.008471515961	0.01644768193	0.1128772721	-0.04093089327	-9.685792923	0	16.75649452
256551660062533	-0.06780941039	-0.008327702992	0.01650094055	0.1087338999	-0.04160149023	-9.68239212	0	16.72167206
256551660567768	-0.06834468991	-0.008663265035	0.01684182696	0.1157273576	-0.0349672921	-9.680644989	0	16.67084503
256551661073025	-0.06801181287	-0.008447548375	0.01678589918	0.1088296771	-0.04076323286	-9.684285164	0	16.65860367
256551661578272	-0.06775080413	-0.008910937235	0.01678590663	0.111224696	-0.03453618288	-9.658201218	0	16.65672302
256551662083529	-0.06816361099	-0.00880973693	0.01661812328	0.1128533334	-0.04069138318	-9.675400734	0	16.66425133
256551662589850	-0.06782007217	-0.008540757932	0.01685780473	0.1104103699	-0.04437971488	-9.674274445	0	16.62754059
256551663094043	-0.06849116832	-0.007797736209	0.01724929176	0.1156794503	-0.0394699201	-9.668548584	0	16.59177589
256551663599276	-0.06770552695	-0.008870989084	0.01709482819	0.1109372973	-0.04373305663	-9.675086021	0	16.55224419
256551664104532	-0.06835801154	-0.008207859471	0.01677790657	0.1116318554	-0.04172124714	-9.674728394	0	16.53153801
256551664609788	-0.06774282455	-0.008487494662	0.01703623869	0.1094523594	-0.04136199504	-9.672020912	0	16.49765587
256551665115032	-0.06808903068	-0.008964199573	0.01666339301	0.1096919104	-0.04006868228	-9.668861389	0	16.49295044
256551665620274	-0.06808104366	-0.008937567472	0.01669269055	0.1119432226	-0.03894301876	-9.673843384	0	16.45153999
256551666125547	-0.06784137338	-0.00890827179	0.01661545783	0.1129970178	-0.03978127241	-9.671447754	0	16.41295242
256551666630783	-0.06817958504	-0.008657935075	0.01666606218	0.1118474081	-0.041553583	-9.669628143	0	16.38095284
256551667136019	-0.06788662076	-0.009486181661	0.01686846092	0.1065064967	-0.03475172818	-9.67592907	0	16.35648155
256551667641280	-0.06833405048	-0.008447547443	0.01663676463	0.110146977	-0.03769760579	-9.676189423	0	16.33765793
256551668146513	-0.06782272458	-0.009329050779	0.01669002697	0.1111049503	-0.04248764366	-9.667974472	0	16.32259941
256551668651749	-0.06837131083	-0.008769789711	0.01662877761	0.112422213	-0.04263136163	-9.673819542	0	16.268013
256551669157025	-0.06768424064	-0.008727177046	0.01629322208	0.1077040359	-0.03503914177	-9.667136192	0	16.24824715
256551669662270	-0.06846719235	-0.009006811306	0.01653289981	0.1096439883	-0.03803291172	-9.672454834	0	16.23412895
256551670167524	-0.06744188815	-0.009054748341	0.01620000042	0.1115839556	-0.0446671173	-9.677938461	0	16.2105999
256551670672762	-0.06817959994	-0.00859402027	0.0162506029	0.1121108681	-0.03693120182	-9.676550865	0	16.17012978
256551671178007	-0.06802778691	-0.008807074279	0.01652757637	0.1111288816	-0.04057163	-9.672669411	0	16.13248444
256551671683227	-0.06823018938	-0.008676578291	0.01621598378	0.1100032479	-0.03657195345	-9.672525406	0	16.10707092
256551672188493	-0.06813698262	-0.008394284174	0.01656485908	0.1107456982	-0.04263135791	-9.669843674	0	16.07413101
256551672693738	-0.06805438548	-0.009403622709	0.01661811955	0.1115600169	-0.04059559852	-9.665171623	0	16.05624962
256551673198987	-0.06804910302	-0.008857673965	0.0169856362	0.1102906466	-0.04619993642	-9.663518906	0	16.03930855
256551673704231	-0.06784937531	-0.009526125155	0.01666605845	0.1090931371	-0.03839216754	-9.66917038	0	15.9960146
256551674209474	-0.06816893071	-0.008570053615	0.0166846998	0.1072250083	-0.03961363435	-9.664958	0	15.97060299
256551674714704	-0.06801180542	-0.009291766211	0.0165675208	0.1053568944	-0.03717070073	-9.667067528	0	15.94613266
256551675219972	-0.06816095859	-0.009163938463	0.01667405106	0.1077758968	-0.0369791016	-9.65856266	0	15.92166233
256551675725198	-0.06809702516	-0.009230516851	0.01685514487	0.1108654588	-0.03966151923	-9.672718048	0	15.90283775
256551676230443	-0.06811033934	-0.008964199573	0.01646365412	0.1024589315	-0.03230880573	-9.665389061	0	15.86989784
256551676735686	-0.06810235232	-0.009065399878	0.01666606404	0.1122305915	-0.04083508998	-9.665866852	0	15.83413315
256551677240940	-0.06825416535	-0.009278453887	0.01662877202	0.1056443006	-0.04164939374	-9.661102295	0	15.82001591
256551677746170	-0.06817159057	-0.009408946149	0.01673530228	0.1008542925	-0.03791315854	-9.665289879	0	15.77672005
256551678251420	-0.06787601113	-0.009161273949	0.01653023809	0.1162781864	-0.0359252952	-9.671423912	0	15.73813152
256551678756644	-0.06843792647	-0.008807074279	0.01645300537	0.1085902005	-0.04239184782	-9.67513752	0	15.7014246
256551679261895	-0.06736731529	-0.009499494918	0.01668470167	0.1076561138	-0.03712280095	-9.665222168	0	15.68730736
256551679767135	-0.06824615598	-0.009094695561	0.01709749736	0.110242717	-0.03693120554	-9.666611671	0	15.67130756
256551680272372	-0.0679186061	-0.009619336575	0.01639707573	0.1047342122	-0.04138593003	-9.663593292	0	15.61860275
256551680777621	-0.06789728254	-0.009840379469	0.01660214737	0.1091170684	-0.04073928297	-9.666584015	0	15.59319115
256551681282854	-0.06831806898	-0.008522111923	0.01671399549	0.1079914346	-0.03963757306	-9.661629677	0	15.58754349
256551681788088	-0.06768690795	-0.008988170885	0.01658083685	0.1113444865	-0.03930227458	-9.667326927	0	15.57154465
256551682293333	-0.06802242994	-0.009374324232	0.01626924984	0.1119911	-0.03566184267	-9.658154488	0	15.53672123
256551682798568	-0.06790528446	-0.009614011273	0.01639174856	0.1110331491	-0.0340092741	-9.666752815	0	15.50754547
256551683303804	-0.06821422279	-0.008652610704	0.01657550782	0.1090212762	-0.03891906887	-9.65355587	0	15.48589802
256551683809043	-0.06763362885	-0.009725864045	0.0166340936	0.1104822233	-0.03841612116	-9.658921242	0	15.46519279
256551684314293	-0.06848318875	-0.009179915302	0.01630919427	0.1030337289	-0.04172123969	-9.661102295	0	15.43413353
256551684819495	-0.06778543442	-0.0100667486	0.01636512019	0.1081111878	-0.03966153786	-9.660310745	0	15.42189789
256551685324752	-0.06795854121	-0.00881239865	0.01621864736	0.1040636152	-0.04030818492	-9.659522057	0	15.39366341
256551685829955	-0.06792127341	-0.009201222099	0.0167006813	0.1099314094	-0.03786526248	-9.661151886	0	15.37201691
256551686335231	-0.06786799431	-0.009528788738	0.01654355228	0.107943505	-0.03970943019	-9.655905724	0	15.3409586
256551686840480	-0.06821686774	-0.008876318112	0.01645034179	0.114960961	-0.03803292289	-9.673149109	0	15.29390049
256551687345706	-0.06760433316	-0.009379652329	0.01644767821	0.1100272164	-0.03810475767	-9.663281441	0	15.26566505
256551687850946	-0.06805975735	-0.009020126425	0.0165781714	0.104279153	-0.04076322541	-9.663352013	0	15.26284218
256551688356171	-0.0677960813	-0.009494169615	0.01657550968	0.1068897024	-0.03884720057	-9.661389351	0	15.21860695
256551688861420	-0.06809968501	-0.009179918095	0.01659415103	0.1078237668	-0.03877537698	-9.66031456	0	15.17813587
256551689366646	-0.06798253953	-0.009656623006	0.01677791029	0.1051892415	-0.03154241666	-9.661459923	0	15.15084267
256551689871887	-0.06794524193	-0.009012135677	0.01674328744	0.1099314466	-0.04325404018	-9.650970459	0	15.12448883
256551690377119	-0.06831540167	-0.009765812196	0.01657018065	0.1059077606	-0.03820055351	-9.665219307	0	15.09248924
256551690882349	-0.06781207025	-0.009683256038	0.01633316278	0.1075363904	-0.04045187682	-9.653198242	0	15.08590126
256551691387581	-0.06815030426	-0.009182577953	0.01652757823	0.1104103625	-0.03812871501	-9.65190506	0	15.07554817
256551691892818	-0.06764960289	-0.009808422998	0.01672464609	0.1057161614	-0.04260739684	-9.663210869	0	15.06613636
256551692398040	-0.06819823384	-0.009171928279	0.01656752639	0.110530138	-0.03532653674	-9.66258812	0	15.00684357
256551692903288	-0.06756439805	-0.01030909549	0.0164902918	0.1027942225	-0.04464316368	-9.650949478	0	14.99460793
256551693408510	-0.06831540167	-0.00930508133	0.01658616401	0.1094763651	-0.0344882831	-9.664502144	0	14.95602036
256551693913736	-0.06787598878	-0.009890980087	0.0165914949	0.1049258038	-0.04129014537	-9.651402473	0	14.92966843
256551694418966	-0.06805977225	-0.009379654191	0.0166580677	0.104590483	-0.03764969483	-9.657222748	0	14.92307949
256551694924217	-0.06817159802	-0.009464871138	0.01640506834	0.1042312682	-0.04006867483	-9.660980225	0	14.86849213
256551695429428	-0.0677055344	-0.008977512829	0.01665539853	0.1053568795	-0.03788920864	-9.664213181	0	14.82425499
256551695934676	-0.06831010431	-0.008926916867	0.01625859737	0.1081829891	-0.03937411681	-9.655449867	0	14.79507351
256551696439932	-0.06773217767	-0.009419599548	0.01672997139	0.1005668789	-0.03705095127	-9.658130646	0	14.76589108
256551696945127	-0.06796119362	-0.009515472688	0.01630919613	0.1098835245	-0.03743415698	-9.66016674	0	14.72447014
256551697450382	-0.06779610366	-0.009763148613	0.01644501835	0.1081830487	-0.03542234004	-9.65489769	0	14.71505833
256551697955591	-0.06802780926	-0.009890977293	0.01670866832	0.1038240865	-0.04057162628	-9.656479836	0	14.70564461
256551698460810	-0.06781207025	-0.009805759415	0.01640507393	0.1076561213	-0.0364282541	-9.656358719	0	14.68870163
256551698966050	-0.06799315661	-0.009270463139	0.01622929983	0.1094044968	-0.03199746087	-9.64824295	0	14.6755209
256551699471276	-0.06815826893	-0.009265139699	0.01630919613	0.1021475792	-0.04608016834	-9.654061317	0	14.64822388
256551699976495	-0.06778544933	-0.009960224852	0.01633050293	0.1051653102	-0.03757785633	-9.65511322	0	14.60492802
256551700481729	-0.06822485477	-0.009608687833	0.01614940166	0.1139790118	-0.03712280095	-9.650345802	0	14.5879879
256551700986948	-0.06805175543	-0.0102638239	0.01638908684	0.1078477427	-0.04303849488	-9.646251678	0	14.56916428
256551701492183	-0.0685018301	-0.009326391853	0.01638376154	0.1076561585	-0.03405718878	-9.658896446	0	14.54563618
256551701997414	-0.06770289689	-0.009997505695	0.01688976586	0.1097397804	-0.04421205819	-9.656191826	0	14.51834106
256551702502636	-0.06800649315	-0.009201222099	0.01640772633	0.108135134	-0.02921924368	-9.65544796	0	14.50610638
256551703007852	-0.06790529937	-0.009874999523	0.01656219363	0.1064347029	-0.04057163	-9.652934074	0	14.48728275
256551703513091	-0.06809435785	-0.009773803875	0.01619734056	0.1028181911	-0.03578159213	-9.649748802	0	14.44963646
256551704018309	-0.0681289956	-0.009590044618	0.0167326387	0.1087817624	-0.03369793296	-9.644122124	0	14.41010761
256551704523537	-0.06788665801	-0.009906955995	0.01656219922	0.1069136783	-0.04026027024	-9.641367912	0	14.39034271
256551705028763	-0.06820887327	-0.00966194924	0.01652224362	0.113140732	-0.03381768242	-9.644001007	0	14.35928631
256551705533990	-0.06754040718	-0.0101413168	0.01659948006	0.1042791456	-0.03942201659	-9.649102211	0	14.34046268
256551706039202	-0.06821155548	-0.009765812196	0.01690840162	0.1015009359	-0.04349354655	-9.647907257	0	14.29058075
256551706544449	-0.06754842401	-0.009432917461	0.01656752266	0.1066023335	-0.03288362548	-9.655282021	0	14.26611042
256551707049680	-0.06805173308	-0.009576728567	0.01672198437	0.1135478839	-0.03817661107	-9.658872604	0	14.22281647
256551707554881	-0.06798784435	-0.01022387575	0.01623196155	0.108566232	-0.04689447954	-9.634972572	0	14.21716881
256551708060175	-0.06766560674	-0.009792442434	0.01663409732	0.1022194251	-0.03436853737	-9.643595695	0	14.19552231
256551708565325	-0.06821154803	-0.009707222693	0.01685514115	0.1115120947	-0.03772156313	-9.655114174	0	14.15317154
256551709070539	-0.06749782711	-0.009835053235	0.01620266214	0.1017404273	-0.04425997287	-9.638323784	0	14.15128899
256551709575775	-0.06825149804	-0.009150619619	0.01630919613	0.1069855168	-0.03688330203	-9.652526855	0	14.1192894
256551710081003	-0.06776678562	-0.01054079179	0.01636511832	0.1046384126	-0.03508704156	-9.645630836	0	14.07693577
256551710586214	-0.06805709004	-0.009579390287	0.01653556153	0.1052850857	-0.03575764969	-9.653822899	0	14.04870129
256551711091426	-0.06777213514	-0.01018659212	0.01631185412	0.1055964231	-0.04100273177	-9.644168854	0	14.02987766
256551711596659	-0.0679904893	-0.009725862183	0.01638109796	0.1085183397	-0.0361408405	-9.639737129	0	14.02140713
256551712101884	-0.06774550676	-0.009992182255	0.01633848436	0.1057161465	-0.03523073718	-9.650205612	0	13.98658466
256551712607103	-0.0677774474	-0.01024517976	0.01623196155	0.108997345	-0.03592529148	-9.641867638	0	13.96023178
256551713112310	-0.06799849123	-0.009877664968	0.01647697575	0.103848055	-0.02972219884	-9.637845993	0	13.92164421
256551713617614	-0.06726613641	-0.009819073603	0.01627723686	0.1056922004	-0.0364761427	-9.652337074	0	13.89811516
256551714122772	-0.06829144061	-0.009669939056	0.01620533131	0.1051413715	-0.03252436593	-9.645823479	0	13.86799812
256551714627975	-0.06756174564	-0.0103517063	0.01678323373	0.1032492742	-0.040451888	-9.644335747	0	13.87270355
256551715133187	-0.06774815172	-0.009851032868	0.01630120538	0.104087539	-0.03159030899	-9.642660141	0	13.84446907
256551715638414	-0.06747920066	-0.01026116125	0.01627990045	0.1039678082	-0.03786525503	-9.643210411	0	13.81811619
256551716143639	-0.06744456291	-0.01003745198	0.01650892943	0.1049497202	-0.03542234376	-9.643499374	0	13.77764606
256551716648843	-0.06736198068	-0.01018392667	0.01659681462	0.1025307849	-0.03446432948	-9.640193939	0	13.74752903
256551717154081	-0.06721551716	-0.009962886572	0.01659415476	0.1064346656	-0.0366917029	-9.646924973	0	13.70329475
256551717659284	-0.06792125851	-0.009885653853	0.01639175415	0.103440851	-0.03527864069	-9.648073196	0	13.66753006
256551718164504	-0.06730072945	-0.01102548558	0.01664209366	0.1039917842	-0.03755390272	-9.64596653	0	13.64964581
256551718669717	-0.06781474501	-0.009289107285	0.01650626771	0.1009500548	-0.04272713885	-9.645294189	0	13.62705898
256551719174934	-0.06694921106	-0.01031175908	0.01630653068	0.09953700751	-0.03182980418	-9.64222908	0	13.61952877
256551719680171	-0.06776677817	-0.01005876064	0.01653290167	0.1063867956	-0.04332590848	-9.638350487	0	13.5903511
256551720185365	-0.06759636104	-0.01034904458	0.01625326648	0.1065065265	-0.0399489291	-9.643832207	0	13.56587982
256551720690584	-0.06707969308	-0.009888318367	0.01636512205	0.1050455719	-0.03614084795	-9.645606995	0	13.53952789
256551721195792	-0.0676363185	-0.009584717453	0.01670334488	0.107201077	-0.03460803255	-9.648742676	0	13.50188065
256551721701021	-0.06713297963	-0.01013332698	0.01653823256	0.1048300043	-0.03764970601	-9.638518333	0	13.47835159
256551722206222	-0.0680943653	-0.009733854793	0.01597896032	0.1044947058	-0.03417693079	-9.651090622	0	13.42658806
256551722711432	-0.06729540974	-0.01083373837	0.01650094427	0.1035127416	-0.04320615157	-9.642661095	0	13.43411732
256551723216647	-0.06769223511	-0.009667274542	0.0164609924	0.09980045259	-0.03673961014	-9.645463943	0	13.37105942
256551723721865	-0.06733003259	-0.01025583502	0.01647431031	0.1080872342	-0.04267924652	-9.64311409	0	13.36635399
256551724227071	-0.06755905598	-0.009813747369	0.01634647883	0.1077519283	-0.03800896183	-9.64450264	0	13.32964802
256551724732297	-0.06756973267	-0.01016262267	0.016620785	0.09924960881	-0.04042793065	-9.632598877	0	13.30517864
256551725237498	-0.06720221043	-0.01053013932	0.01657018438	0.1051413491	-0.03992497921	-9.638565063	0	13.29576683
256551725742722	-0.06763362139	-0.01039964426	0.01640506461	0.1060753986	-0.03365001827	-9.641340256	0	13.28353119
256551726247935	-0.06681340188	-0.01009870786	0.01645833068	0.1044946909	-0.03817661107	-9.641844749	0	13.24400234
256551726753140	-0.06783071905	-0.0102478452	0.01640240662	0.1085902005	-0.03879930824	-9.635619164	0	13.23082638
256551727258350	-0.06709035486	-0.01021055784	0.01631984673	0.1068897098	-0.03700305894	-9.646875381	0	13.20353317
256551727763571	-0.06761499494	-0.009984189644	0.01617870107	0.1030337214	-0.03870351613	-9.64840889	0	13.15459061
256551728268775	-0.06746586412	-0.01021322142	0.01644501649	0.1061712354	-0.04157754406	-9.651664734	0	13.11882687
256551728773999	-0.06701575965	-0.01031974982	0.01633050479	0.1022433862	-0.03887116909	-9.637055397	0	13.09341526
256551729279191	-0.06762565672	-0.01040497143	0.01619201712	0.1061472893	-0.03805686161	-9.637174606	0	13.0642395
256551729784412	-0.0670344159	-0.01043426245	0.01655154303	0.1018841416	-0.03834426403	-9.650085449	0	13.0388279
256551730289618	-0.06725811958	-0.01005875785	0.01663409919	0.1003273726	-0.03623665497	-9.639570236	0	13.0228281
256551730794839	-0.06683736295	-0.01060204487	0.01631451957	0.1083507016	-0.03757786378	-9.642781258	0	13.00776958
256551731300057	-0.06729540974	-0.009701896459	0.01631718315	0.1058598757	-0.0337937288	-9.648694992	0	12.95506477
256551731805241	-0.06718888879	-0.01048486587	0.01649561338	0.1067460254	-0.03987707943	-9.63932991	0	12.93529987
256551732310458	-0.06690393388	-0.009752498008	0.01655686647	0.1010698304	-0.04373307154	-9.63662529	0	12.91741848
256551732815652	-0.06748715788	-0.01046622451	0.01632517576	0.106434688	-0.03752996027	-9.644528389	0	12.89388943
256551733320864	-0.06704774499	-0.01092695072	0.01593102701	0.1051653102	-0.03915857151	-9.64134407	0	12.86659527
256551733826067	-0.0672288388	-0.01034904458	0.0166740492	0.1018840969	-0.03911067545	-9.636792183	0	12.86094856
256551734331281	-0.06688528508	-0.01121723372	0.01657551341	0.1044467837	-0.04193679243	-9.640936852	0	12.8496542
256551734836483	-0.06711166352	-0.01062068902	0.01634914055	0.1052611247	-0.03681146353	-9.637127876	0	12.81483173
256551735341698	-0.06680006534	-0.01026648656	0.0162452776	0.1061233431	-0.03302731737	-9.643379211	0	12.8120079
256551735846895	-0.06731936336	-0.01037833933	0.01656485908	0.1049737111	-0.03444037586	-9.635333061	0	12.79035854
256551736352105	-0.06707704812	-0.0105061708	0.01647963934	0.1048778966	-0.03872746229	-9.640288353	0	12.74235249
256551736857309	-0.06715427339	-0.01048220135	0.01659148932	0.1013811752	-0.03985312209	-9.640839577	0	12.69434452
256551737362521	-0.06729007512	-0.00998951681	0.01655420102	0.1037283018	-0.0393262282	-9.643065453	0	12.65857506
256551737867725	-0.06654973328	-0.01059139241	0.01649294794	0.1077998355	-0.04052373394	-9.63296032	0	12.63786888
256551738372931	-0.06745252758	-0.01058073994	0.01675128378	0.1051892713	-0.0409069322	-9.637798309	0	12.62657547
256551738878125	-0.06685331464	-0.01039964519	0.01649561897	0.1038480327	-0.03182981536	-9.638612747	0	12.60304546
256551739383334	-0.06749248505	-0.01051682234	0.01638376154	0.1013572365	-0.03851192445	-9.645343781	0	12.5663414
256551739888524	-0.06718890369	-0.01057008561	0.01643968746	0.1049018353	-0.04337380826	-9.639956474	0	12.53998756
256551740393746	-0.06700245291	-0.0106100319	0.01661013067	0.1005429253	-0.03530259058	-9.63822937	0	12.53622341
256551740898948	-0.06721019	-0.01072188839	0.01649827883	0.1010458767	-0.04272713885	-9.640814781	0	12.50704861
256551741404163	-0.06662964821	-0.01062334981	0.01640240476	0.1003513038	-0.03650010377	-9.637104034	0	12.46563625
256551741909345	-0.0672980696	-0.009805757552	0.01616804488	0.0981957987	-0.03436853364	-9.648359299	0	12.44493008
256551742414563	-0.06693855673	-0.01088700164	0.01627989672	0.1030337214	-0.0425834544	-9.631690979	0	12.42798996
256551742919775	-0.06709036231	-0.01012533624	0.01648763195	0.09690248966	-0.03678749502	-9.640313148	0	12.4006958
256551743424960	-0.06695985049	-0.01078580227	0.01642637141	0.103416957	-0.0373144038	-9.63051796	0	12.39975452
256551743935164	-0.06719955057	-0.01035969704	0.01610679738	0.1023392081	-0.03889511898	-9.645460129	0	12.39316654
256551744440382	-0.0667867586	-0.01026648656	0.01641838439	0.1025547385	-0.03958967701	-9.632743835	0	12.37528419
256551744945563	-0.0669651702	-0.01037035044	0.01634648256	0.09927356243	-0.03925436735	-9.63588047	0	12.33387375
256551745450771	-0.06708502024	-0.01021055784	0.01616804302	0.105548501	-0.03513493389	-9.645053864	0	12.31975555
256551745955971	-0.06646718085	-0.01108940318	0.01610679552	0.1080872416	-0.03719465807	-9.632912636	0	12.26422691
256551746461170	-0.06686663628	-0.01001082268	0.01635979302	0.1041114703	-0.03515888751	-9.636864662	0	12.2529335
256551746966374	-0.06623281538	-0.01099619083	0.0162106622	0.1005189791	-0.03501519933	-9.647399902	0	12.23693371
256551747471581	-0.06698382646	-0.0101732742	0.01610146835	0.1020757258	-0.03973337263	-9.638134956	0	12.18516922
256551747976768	-0.06674146652	-0.01022653934	0.01609347574	0.1073208302	-0.04330195487	-9.631402016	0	12.15975857
256551748481966	-0.06657104194	-0.01042893622	0.01623195782	0.09972861409	-0.03587738797	-9.638876915	0	12.14564133
256551748987168	-0.06677079201	-0.01009604335	0.01646099798	0.1052850857	-0.04090693966	-9.631307602	0	12.10046482
256551749492367	-0.06635529548	-0.01082042418	0.01647431031	0.1061951444	-0.03590134159	-9.643449783	0	12.09199429
256551749997550	-0.06746851653	-0.01039431524	0.01623728871	0.103991732	-0.04033211991	-9.641965866	0	12.0421114
256551750502766	-0.06656038016	-0.01058340166	0.0162399523	0.103297174	-0.03659590334	-9.639519691	0	12.00540638
256551751007956	-0.06708236784	-0.009725864977	0.01630386896	0.1043031216	-0.03321891278	-9.646035194	0	11.9790535
256551751513138	-0.06695454568	-0.01027980074	0.01644501463	0.1057401076	-0.04100273922	-9.632598877	0	11.94423103
256551752018350	-0.06600911915	-0.01013865322	0.01651958749	0.09912985563	-0.03640428558	-9.630179405	0	11.94799519
256551752523553	-0.06689862162	-0.01094825473	0.01642104425	0.0965192765	-0.03048860282	-9.632051468	0	11.91223145
256551753028729	-0.06608366966	-0.01102016307	0.01657018811	0.10494975	-0.0329554677	-9.631332397	0	11.8783493
256551753533944	-0.06665891409	-0.01128647663	0.01611744426	0.1036564261	-0.03887116164	-9.635569572	0	11.8567028
256551754039131	-0.0664139092	-0.01143028866	0.01625326835	0.105859831	-0.03899091855	-9.631932259	0	11.85858536
256551754544319	-0.06671219319	-0.01002147608	0.0162559282	0.1000399888	-0.04167333618	-9.635643959	0	11.81905651
256551755049535	-0.06705040485	-0.01027713902	0.01639707945	0.09848318994	-0.03367397934	-9.625822067	0	11.81246853
256551755554740	-0.06624346226	-0.01096689794	0.01644502021	0.1031295359	-0.03465594351	-9.631474495	0	11.7682333
256551756059930	-0.06714096665	-0.01066595875	0.01647164673	0.09857900441	-0.03238066286	-9.629607201	0	11.73623276
256551756565122	-0.06627009064	-0.01068460289	0.0162452776	0.102099672	-0.03935017809	-9.624266624	0	11.71176147
256551757070308	-0.06672549248	-0.01067128405	0.01626658626	0.1013332829	-0.03556604683	-9.628768921	0	11.68634987
256551757575485	-0.06676013023	-0.01034904458	0.01628522947	0.1026026234	-0.03879931197	-9.620459557	0	11.64493561
256551758080701	-0.06633399427	-0.01071389578	0.01614674367	0.09774074703	-0.03561394289	-9.636528969	0	11.62611103
256551758585884	-0.0670344159	-0.01066063531	0.01639175043	0.1036085561	-0.03927831724	-9.63561821	0	11.58846474
256551759091063	-0.06644853204	-0.01132908929	0.01637577452	0.1078956425	-0.04069139436	-9.630518913	0	11.57717037
256551759596268	-0.06703975797	-0.01028779242	0.01623462327	0.1012614444	-0.03465592861	-9.630684853	0	11.55081749
256551760101469	-0.06632869691	-0.01108407695	0.01624794118	0.1025068164	-0.04205654189	-9.634780884	0	11.52634811
256551760606659	-0.06669086963	-0.01108940411	0.01639707573	0.1065783873	-0.03357817605	-9.627737999	0	11.48964214
256551761111852	-0.0669438839	-0.01015463285	0.0161440745	0.1052132174	-0.03714675456	-9.634370804	0	11.45481968
256551761617032	-0.06617156416	-0.0113770254	0.01602157019	0.102961868	-0.03326682746	-9.63233757	0	11.43129063
256551762122225	-0.06693589687	-0.01076715905	0.01648495905	0.1046863049	-0.03015330061	-9.630517006	0	11.41623211
256551762627426	-0.06624879688	-0.01120924577	0.01624528132	0.1022912934	-0.03290757164	-9.624123573	0	11.39458466
256551763132615	-0.06691457331	-0.01114000101	0.01647431031	0.1009261087	-0.03041675314	-9.621941566	0	11.36635017
256551763637806	-0.06662431359	-0.01028246619	0.0160775017	0.1000878289	-0.03463197872	-9.624173164	0	11.369174
256551764142996	-0.06651509553	-0.01107608527	0.01631984487	0.1009500772	-0.03618874773	-9.63212204	0	11.33811569
256551764648167	-0.06746852398	-0.01068726555	0.01638109609	0.1024589837	-0.04021237791	-9.633274078	0	11.29764557
256551765153376	-0.06599047035	-0.01139300317	0.01628522575	0.1051413417	-0.0364761427	-9.633825302	0	11.25529194
256551765658554	-0.06677608937	-0.01111070998	0.01634647883	0.1025547385	-0.03180586174	-9.632506371	0	11.23176289
256551766163753	-0.06652310491	-0.0107325362	0.01621065661	0.1019081026	-0.03961362317	-9.620819092	0	11.2270565
256551766668935	-0.06657902896	-0.01099086739	0.01613608748	0.1012374982	-0.03832031786	-9.62996769	0	11.17435169
256551767174138	-0.06691992283	-0.01083373744	0.01626391895	0.1007105932	-0.04059557989	-9.626757622	0	11.15176296
256551767679301	-0.06593453884	-0.01093493868	0.01637044549	0.1008063555	-0.03606899828	-9.636123657	0	11.12070465
256551768184511	-0.06665358692	-0.01029311866	0.01620799676	0.1059077457	-0.03731441498	-9.628336906	0	11.0990572
256551768689682	-0.06609698385	-0.01132109854	0.01634381339	0.1008542702	-0.037050955	-9.631355286	0	11.08682251
256551769194875	-0.06668820977	-0.01117462106	0.01630120724	0.09901010245	-0.03494333848	-9.634591103	0	11.06329346
256551769700108	-0.06656838208	-0.01071389671	0.01659948006	0.1004232168	-0.03561394289	-9.613271713	0	11.03882313
256551770205243	-0.06641924381	-0.01100684516	0.01630386896	0.09953701496	-0.03903882205	-9.62038517	0	11.0143528
256551770710413	-0.06708503515	-0.01139300317	0.01623728871	0.1009740233	-0.03456013277	-9.624124527	0	10.97482395
256551771215620	-0.06621416658	-0.01154480223	0.0162559282	0.1022433713	-0.03003354929	-9.619856834	0	10.94564819
256551771720809	-0.06702642888	-0.01039431896	0.01641838625	0.1037283093	-0.03535049036	-9.626013756	0	10.92400169
256551772225985	-0.06632868946	-0.01130245626	0.01631718688	0.1021715328	-0.03575764969	-9.625369072	0	10.89859009
256551772731183	-0.06646983325	-0.01121723279	0.01611211896	0.09479489923	-0.037529964	-9.625535965	0	10.89106083
256551773236355	-0.06666691601	-0.01122788806	0.01629854552	0.1008542702	-0.03551813588	-9.621009827	0	10.87223721
256551773741523	-0.06612894684	-0.01121989544	0.0162719097	0.1015488431	-0.03683541715	-9.621343613	0	10.84212017
256551774246733	-0.06688529253	-0.0111186998	0.01635979675	0.09350157529	-0.03506309539	-9.620577812	0	10.82235622
256551774751913	-0.06608369201	-0.01170992106	0.01617337391	0.1013811827	-0.03654799238	-9.629416466	0	10.80447388
256551775257087	-0.06676278263	-0.01103880163	0.01601358317	0.1060035899	-0.03484754637	-9.620816231	0	10.78094482
256551775762283	-0.06655506045	-0.0113557158	0.01636512205	0.09987229854	-0.03472779319	-9.627473831	0	10.74518108
256551776267456	-0.06625146419	-0.01074053068	0.0164530091	0.1002076343	-0.03477568179	-9.624915123	0	10.7131815
256551776772651	-0.06697317213	-0.01117196307	0.0160615202	0.09853108972	-0.0354462862	-9.628555298	0	10.70565224
256551777277833	-0.06607303023	-0.011773834	0.01622396894	0.1040396467	-0.03650009632	-9.627953529	0	10.66894531
256551777783011	-0.06679473817	-0.01034105197	0.01650626771	0.1003273726	-0.04212839156	-9.626134872	0	10.64918137
256551778288183	-0.06626476347	-0.01154480409	0.01651958376	0.1031295359	-0.03290757537	-9.61684227	0	10.61341667
256551778793386	-0.06651778519	-0.01059671771	0.01633848809	0.09877061844	-0.03590134531	-9.618112564	0	10.58800507
256551779298542	-0.06647250056	-0.01123853866	0.01621864177	0.100902155	-0.03858376294	-9.622974396	0	10.54094601
256551779803748	-0.06615026295	-0.01082042232	0.01629054919	0.09891430289	-0.04231999442	-9.621248245	0	10.5117712
256551780308912	-0.06700779498	-0.01083640195	0.01624261215	0.09759706259	-0.04052372277	-9.625367165	0	10.49859524
256551780814094	-0.06643520296	-0.01102282014	0.01631185971	0.0916813463	-0.04054767638	-9.622634888	0	10.46000576
256551781319268	-0.06652044505	-0.01113201119	0.01647697203	0.09812393039	-0.04126619175	-9.620053291	0	10.42141819
256551781824460	-0.06640059501	-0.01134240348	0.0164902918	0.09563313425	-0.03870351613	-9.610520363	0	10.41388893
256551782329629	-0.06608900428	-0.01133973897	0.01633049734	0.09932144731	-0.03365002945	-9.6141119	0	10.387537
256551782834836	-0.06658703089	-0.01096156891	0.01622663625	0.09843531996	-0.03633244708	-9.620914459	0	10.35741901
256551783340023	-0.06610498577	-0.01153681707	0.01639175043	0.1015009284	-0.03089576587	-9.61550045	0	10.31883144
256551783845159	-0.06699448079	-0.01095358096	0.01635446772	0.1026984677	-0.039110668	-9.612576485	0	10.29718494
256551784350349	-0.06618755311	-0.01213602535	0.0163091924	0.1050216109	-0.03693120554	-9.616458893	0	10.25953865
256551784855521	-0.06610497087	-0.01154480316	0.01635180973	0.1031295285	-0.03611689061	-9.621249199	0	10.27083206
256551785360698	-0.06658167392	-0.01083640195	0.01595765725	0.1013811752	-0.03120711446	-9.617321014	0	10.23695087
256551785865879	-0.06580404937	-0.01230114233	0.01609347202	0.0955613032	-0.04078717157	-9.620480537	0	10.21718597
256551786371060	-0.06701046228	-0.01093760505	0.0160348881	0.1016685814	-0.03590134904	-9.613466263	0	10.18706894
256551786876221	-0.06612097472	-0.01115065534	0.01621598564	0.1004231796	-0.04004473239	-9.608029366	0	10.1785984
256551787381411	-0.06659501046	-0.01108673867	0.01636778004	0.09431586415	-0.03384161741	-9.624171257	0	10.15601063
256551787886585	-0.06645386666	-0.0112598436	0.01614940539	0.09690250456	-0.03592529148	-9.614850998	0	10.13248158
256551788391760	-0.06620085239	-0.01153148711	0.01586178318	0.1009500846	-0.0330273211	-9.616937637	0	10.12212849
256551788896934	-0.06701310724	-0.01110538188	0.01616272144	0.1030576974	-0.03836821392	-9.611093521	0	10.08259964
256551789402128	-0.06635264307	-0.01160871703	0.01614141837	0.1026744917	-0.03958967701	-9.614782333	0	10.06942272
256551789907280	-0.06696520001	-0.01157942507	0.01606418565	0.09695038944	-0.0376018025	-9.61684227	0	10.02424622
256551790412462	-0.06641658396	-0.01128913928	0.01612010598	0.1003033891	-0.03491939232	-9.614254951	0	10.00071716
256551790917627	-0.06637131423	-0.01151550654	0.01608016156	0.1007345095	-0.0351828374	-9.618494987	0	9.976246834
256551791422811	-0.06645385921	-0.01128914114	0.01637044549	0.1012135074	-0.03645219654	-9.621128082	0	9.945188522
256551791927985	-0.06589991599	-0.01160073094	0.01599493995	0.1023152396	-0.03285967559	-9.617752075	0	9.909423828
256551792433170	-0.0665736869	-0.01067128778	0.01639441028	0.09481881559	-0.03381767496	-9.610351562	0	9.886836052
256551792938331	-0.06621417403	-0.01128114946	0.0163358245	0.0969503969	-0.03626059368	-9.603261948	0	9.884953499
256551793443510	-0.06608102471	-0.01091896184	0.01629588008	0.09764495492	-0.03312312439	-9.612866402	0	9.861424446
256551793948677	-0.06660299003	-0.01102016214	0.01616804861	0.1060275361	-0.04057163	-9.606137276	0	9.852012634
256551794453854	-0.06600644439	-0.01115065627	0.01632251032	0.09321416914	-0.04083508253	-9.60223484	0	9.822836876
256551794959023	-0.06668822467	-0.01042095199	0.01638109609	0.09587264061	-0.03714675456	-9.615407944	0	9.806837082
256551795464197	-0.06572947651	-0.01113733649	0.0159816239	0.0976928398	-0.0359252952	-9.609366417	0	9.773896217
256551795969356	-0.06637663394	-0.01150485687	0.01619468257	0.0965911299	-0.03235672042	-9.612077713	0	9.737190247
256551796474532	-0.06631537527	-0.01108141243	0.01634381339	0.1025307998	-0.03726650774	-9.606663704	0	9.692014694
256551796979700	-0.06624080241	-0.01151018031	0.01625060476	0.09261541814	-0.03810475394	-9.602903366	0	9.681661606
256551797484875	-0.06640058756	-0.01115332078	0.01601091959	0.100806348	-0.03851191327	-9.59689045	0	9.653427124
256551797990079	-0.06560430676	-0.01153415255	0.01611211896	0.100423187	-0.03824846074	-9.602325439	0	9.621427536
256551798495218	-0.0663446635	-0.0112811476	0.01634381898	0.09932143986	-0.03060835041	-9.606880188	0	9.596957207
256551799000389	-0.0662035197	-0.01132909022	0.01624527946	0.0976928696	-0.03235672042	-9.60050869	0	9.574368477
256551799505551	-0.06609967351	-0.01112668961	0.01636511832	0.09582474828	-0.03187771142	-9.608264923	0	9.553661346
256551800010729	-0.06625144184	-0.01072987542	0.01639974117	0.1016446054	-0.04131408781	-9.595262527	0	9.536718369
256551800515888	-0.06585465372	-0.0119362874	0.01651159301	0.09865087271	-0.03508703783	-9.603142738	0	9.517894745
256551801023867	-0.06654174626	-0.01089765504	0.01626658067	0.0989382267	-0.03362606838	-9.59250927	0	9.492481232
256551801526228	-0.06585730612	-0.01146757137	0.01609081589	0.09721384943	-0.03096759506	-9.614974022	0	9.456715584
256551802031402	-0.06589191407	-0.01036236063	0.0160348881	0.09139392525	-0.03003354743	-9.607837677	0	9.448245049
256551802536548	-0.06644585729	-0.01095092017	0.01628789306	0.101596728	-0.03733834997	-9.601392746	0	9.415304184
256551803041737	-0.06587859988	-0.01120391674	0.01627723128	0.09491465241	-0.04040398821	-9.614400864	0	9.40212822
256551803546894	-0.0665044561	-0.01106809545	0.01605619676	0.09984836727	-0.03877536952	-9.607597351	0	9.350363731
256551804052053	-0.06591057032	-0.01177117322	0.01604820415	0.09620790929	-0.03788920492	-9.60560894	0	9.343775749
256551804557231	-0.06624348462	-0.01052481402	0.01605886035	0.09908197075	-0.03733836859	-9.612338066	0	9.309893608
256551805062402	-0.06648848206	-0.01115065627	0.01617870294	0.1043749601	-0.03793711215	-9.605251312	0	9.28071785
256551805567543	-0.06608632952	-0.01178981364	0.01617337018	0.0988664031	-0.03269201517	-9.598112106	0	9.269423485
256551806072737	-0.06640060991	-0.01138501614	0.01615739241	0.09759704024	-0.03230882064	-9.60970211	0	9.250600815
256551806577894	-0.06618224084	-0.01156610623	0.01612543315	0.09295069426	-0.03477568924	-9.617416382	0	9.215777397
256551807083048	-0.06630737334	-0.01168328896	0.01588841155	0.09896222502	-0.03089575469	-9.604963303	0	9.202600479
256551807588230	-0.0661316067	-0.0116033908	0.01638908498	0.0952020213	-0.04136199504	-9.608481407	0	9.189424515
256551808093397	-0.06569219381	-0.01159540284	0.01629853994	0.1002555043	-0.03264410794	-9.594257355	0	9.170600891
256551808598529	-0.06653109193	-0.01145958155	0.01609081402	0.09616003931	-0.03544628248	-9.604912758	0	9.153659821
256551809103728	-0.06584133208	-0.01178182568	0.01628256217	0.1020517722	-0.038511917	-9.599526405	0	9.121660233
